Timestamp, Accel x, Accel y, Accel z, Gyro x, Gyro y, Gyro z,Mag x,Mag y,Mag z,Light Intensity
-4,0.0,0.0,0.0,0.0,0.0,0.0,0.0,0.0,0.0,138.920715
0,-0.9614280000000001,6.525601,6.6417649999999995,0.0,0.0,0.0,0.0,0.0,0.0,0.0
2,-1.186387,6.5541789999999995,6.811794,-0.41561899999999996,0.551761,-0.236105,0.0,0.0,0.0,0.0
4,-1.310832,6.482735,6.830686,0.0,0.0,0.0,0.0,0.0,0.0,0.0
7,-1.425706,6.354134999999999,6.929869999999999,0.0,0.0,0.0,0.0,0.0,0.0,0.0
9,-1.535792,6.2874550000000005,7.066838000000001,-0.390052,0.40475500000000003,-0.173255,0.0,0.0,0.0,0.0
12,-1.679383,6.258877,7.104621000000001,-0.3794,0.396233,-0.161537,0.0,0.0,0.0,0.0
14,-1.8038290000000001,6.220774,7.104621000000001,-0.363421,0.34936100000000003,-0.150884,0.0,0.0,0.0,0.0
17,-1.9043430000000001,6.220774,7.175467,-0.348507,0.298229,-0.132775,0.0,0.0,0.0,0.0
19,-1.923489,6.192196,7.251035000000001,-0.333594,0.252422,-0.10401300000000001,0.0,0.0,0.0,0.0
21,0.0,0.0,0.0,0.0,0.0,0.0,30.934692,-70.845268,-52.400428999999995,0.0
22,-1.9522080000000002,6.158856,7.369111,-0.312288,0.209812,-0.08164199999999999,0.0,0.0,0.0,0.0
24,-1.956995,6.2445889999999995,7.392726,-0.292048,0.173593,-0.059271000000000004,0.0,0.0,0.0,0.0
27,-1.899559,6.258879,7.524971000000001,-0.273939,0.139504,-0.03477,0.0,0.0,0.0,0.0
29,-1.8756279999999999,6.330323,7.643046000000001,-0.24943800000000002,0.11393800000000001,-0.017726,0.0,0.0,0.0,0.0
31,0.0,0.0,0.0,0.0,0.0,0.0,31.207359000000004,-69.958076,-52.032447999999995,0.0
32,-1.870842,6.363664,7.756399000000001,-0.22706700000000002,0.099024,0.001449,0.0,0.0,0.0,0.0
34,-1.789475,6.382716,7.898089,-0.203631,0.087306,0.018493,0.0,0.0,0.0,0.0
37,-1.770331,6.520842,7.935874,-0.177,0.07985,0.031276,0.0,0.0,0.0,0.0
39,-1.688963,6.592286,7.954766,-0.15143299999999998,0.076654,0.047255,0.0,0.0,0.0,0.0
41,0.0,0.0,0.0,0.0,0.0,0.0,31.259708000000003,-68.643723,-53.81108100000001,0.0
42,-1.578878,6.630389999999999,7.954766,-0.126932,0.075588,0.057908,0.0,0.0,0.0,0.0
44,-1.593238,6.611339,7.865028,-0.101366,0.076654,0.06856,0.0,0.0,0.0,0.0
47,-1.497511,6.711361,7.784736,-0.07047300000000001,0.08198,0.079213,0.0,0.0,0.0,0.0
49,-1.406572,6.758991,7.770567,-0.045972000000000006,0.086241,0.0888,0.0,0.0,0.0,0.0
51,0.0,0.0,0.0,0.0,0.0,0.0,31.033015999999996,-68.43428,-54.250313,0.0
52,-1.3634950000000001,6.816147,7.737506,-0.025731999999999998,0.087306,0.097322,0.0,0.0,0.0,0.0
54,-1.310846,6.8209100000000005,7.66666,-0.010819,0.095828,0.104779,0.0,0.0,0.0,0.0
57,-1.205547,6.9780869999999995,7.586367999999999,0.008356,0.10222,0.111171,0.0,0.0,0.0,0.0
59,-1.200761,6.9780869999999995,7.4494,0.019009,0.109677,0.11543199999999999,0.0,0.0,0.0,0.0
61,0.0,0.0,0.0,0.0,0.0,0.0,31.454552000000003,-69.198479,-54.270554000000004,0.0
62,-1.12418,7.011429,7.425785,0.024335,0.115003,0.118628,0.0,0.0,0.0,0.0
64,-1.03324,7.011429,7.421061999999999,0.031792,0.12032899999999999,0.11756199999999999,0.0,0.0,0.0,0.0
67,-0.971018,7.040007000000001,7.378553999999999,0.036052999999999995,0.128852,0.116497,0.0,0.0,0.0,0.0
69,-0.9040100000000001,7.087636,7.24631,0.039249,0.140569,0.11223599999999999,0.0,0.0,0.0,0.0
71,0.0,0.0,0.0,0.0,0.0,0.0,31.399712,-70.092117,-55.133621,0.0
72,-0.86572,7.135267,7.222694000000001,0.041379,0.144831,0.104779,0.0,0.0,0.0,0.0
74,-0.8417889999999999,7.101926,7.118786999999999,0.039249,0.15228699999999998,0.095192,0.0,0.0,0.0,0.0
77,-0.8274309999999999,7.082874,7.047942,0.036052999999999995,0.159744,0.0888,0.0,0.0,0.0,0.0
79,-0.8226450000000001,7.125742,6.944035,0.033922,0.17146199999999998,0.074952,0.0,0.0,0.0,0.0
81,0.0,0.0,0.0,0.0,0.0,0.0,31.754828999999997,-70.497475,-54.548752,0.0
82,-0.8226459999999999,7.144794,6.934589,0.030726999999999997,0.181049,0.060038,0.0,0.0,0.0,0.0
84,-0.832219,7.159082000000001,6.877911999999999,0.0254,0.18531,0.049385000000000005,0.0,0.0,0.0,0.0
87,-0.8465790000000001,7.159083,6.821236,0.016878,0.189572,0.038733,0.0,0.0,0.0,0.0
89,-0.865725,7.192424000000001,6.722052000000001,0.007291,0.192767,0.02595,0.0,0.0,0.0,0.0
91,0.0,0.0,0.0,0.0,0.0,0.0,31.109378999999997,-69.732712,-53.724197,0.0
92,-0.908803,7.244816999999999,6.712606,-0.0033619999999999995,0.20128900000000002,0.019558000000000002,0.0,0.0,0.0,0.0
94,-0.908803,7.240054,6.660653,-0.011884,0.20555,0.011036,0.0,0.0,0.0,0.0
97,-0.937522,7.211477,6.594529,-0.022537,0.210877,0.004644,0.0,0.0,0.0,0.0
99,-0.947095,7.1638470000000005,6.6417600000000006,-0.039581,0.222595,0.000383,0.0,0.0,0.0,0.0
101,0.0,0.0,0.0,0.0,0.0,0.0,30.536152,-69.53274499999999,-52.415817,0.0
102,-0.975814,7.1543220000000005,6.660652000000001,-0.05769,0.23324699999999998,-0.004943,0.0,0.0,0.0,0.0
104,-0.9566690000000001,7.211478,6.717328,-0.071539,0.252422,-0.007073,0.0,0.0,0.0,0.0
107,-0.9518840000000001,7.149559,6.811788000000001,-0.087518,0.272662,-0.0124,0.0,0.0,0.0,0.0
109,-0.9566709999999999,7.120982000000001,6.8354029999999995,-0.09817000000000001,0.298228,-0.016661000000000002,0.0,0.0,0.0,0.0
111,-0.947098,7.068589,6.807065,-0.110953,0.322729,-0.018791,30.894309999999997,-69.93514300000001,-51.98555,0.0
114,-0.937527,7.035249,6.788173,-0.119476,0.348296,-0.028379,0.0,0.0,0.0,0.0
116,-0.9901770000000001,7.006672,6.750389,-0.126932,0.36534,-0.029444,0.0,0.0,0.0,0.0
119,-0.985391,6.949516,6.6417589999999995,-0.134389,0.377058,-0.031575,0.0,0.0,0.0,0.0
121,-1.004537,6.959042999999999,6.618144,-0.146107,0.390906,-0.037966,31.305901000000002,-69.759781,-53.137016,0.0
124,-1.085906,6.911414,6.5614669999999995,-0.155695,0.389841,-0.043292000000000004,0.0,0.0,0.0,0.0
126,-1.0476159999999999,6.897125,6.452837000000001,-0.164217,0.38664499999999996,-0.044358,0.0,0.0,0.0,0.0
129,-1.052403,6.897125,6.405607,-0.178065,0.377058,-0.051815,0.0,0.0,0.0,0.0
131,-1.033258,6.83997,6.249746,-0.190848,0.360014,-0.056076,31.824612,-69.800934,-53.060577,0.0
134,-1.047618,6.920941,6.2072389999999995,-0.205762,0.340839,-0.056076,0.0,0.0,0.0,0.0
136,-1.061978,6.863785000000001,6.169455,-0.222806,0.32059899999999997,-0.060337,0.0,0.0,0.0,0.0
139,-0.990183,6.868549000000001,6.169455,-0.241981,0.29396700000000003,-0.068859,0.0,0.0,0.0,0.0
141,-1.023688,6.849497,6.051378,-0.265417,0.268401,-0.076316,32.024181,-69.825066,-52.628006000000006,0.0
144,-1.1098430000000001,6.844734,6.051378,-0.287787,0.24283400000000002,-0.084838,0.0,0.0,0.0,169.38017299999998
146,-1.081126,6.859024000000001,6.08444,-0.312288,0.207681,-0.09336,0.0,0.0,0.0,0.0
149,-1.095485,6.86855,6.046655,-0.343181,0.17465799999999998,-0.101882,0.0,0.0,0.0,0.0
151,-1.124204,6.920942999999999,6.122223,-0.376204,0.1427,-0.1136,32.188862,-70.197449,-52.939529,0.0
154,-1.14335,6.8971279999999995,6.103331,-0.406032,0.11180699999999999,-0.126383,0.0,0.0,0.0,0.0
156,-1.172069,6.930469,6.254468,-0.437989,0.07771900000000001,-0.138101,0.0,0.0,0.0,0.0
159,-1.234292,6.935232000000001,6.3442050000000005,-0.463556,0.053217999999999994,-0.147688,0.0,0.0,0.0,0.0
161,-1.301302,6.911417,6.391436,-0.491253,0.030847000000000003,-0.150884,32.713657,-70.232712,-53.172309999999996,0.0
164,-1.373098,6.916181,6.424497,-0.51895,0.002085,-0.155145,0.0,0.0,0.0,0.0
166,-1.4640389999999999,6.93047,6.556742,-0.5381239999999999,-0.020286000000000002,-0.160471,0.0,0.0,0.0,0.0
169,-1.516689,6.8876029999999995,6.722047,-0.554103,-0.036265,-0.159406,0.0,0.0,0.0,0.0
171,-1.598058,6.863789,6.825953999999999,-0.564756,-0.05757,-0.157276,32.874207,-69.871475,-53.526123,0.0
174,-1.636349,6.759003999999999,6.825953,-0.5764739999999999,-0.070353,-0.15408,0.0,0.0,0.0,0.0
176,-1.665068,6.720901,6.887353,-0.582865,-0.084202,-0.146623,0.0,0.0,0.0,0.0
179,-1.751223,6.663746000000001,6.962922,-0.591387,-0.10017999999999999,-0.139166,0.0,0.0,0.0,0.0
181,-1.736865,6.658983,7.1046119999999995,-0.593518,-0.11402899999999999,-0.132775,32.450714000000005,-69.84679399999999,-53.154373,0.0
184,-1.7464380000000002,6.635169,7.156566000000001,-0.593518,-0.136399,-0.11999100000000001,0.0,0.0,0.0,0.0
186,-1.7751569999999999,6.649457000000001,7.213242,-0.592453,-0.15450899999999998,-0.106143,0.0,0.0,0.0,0.0
189,-1.8038759999999998,6.578013,7.2840869999999995,-0.5860609999999999,-0.168357,-0.09655599999999999,0.0,0.0,0.0,0.0
191,-1.856526,6.558961999999999,7.392716,-0.57967,-0.177945,-0.082707,31.979073,-69.445587,-53.105171,0.0
194,-1.899604,6.58754,7.506069,-0.572213,-0.17901,-0.06779299999999999,0.0,0.0,0.0,0.0
196,-1.91875,6.520859,7.534407000000001,-0.564756,-0.181141,-0.048619,0.0,0.0,0.0,0.0
199,-1.899605,6.563725,7.572191,-0.549842,-0.17687999999999998,-0.03477,0.0,0.0,0.0,0.0
201,-1.9187509999999999,6.56849,7.704436,-0.5370590000000001,-0.170488,-0.015596,32.091469000000004,-68.707809,-53.78153199999999,0.0
204,-1.957043,6.535149,7.732774000000001,-0.523211,-0.155574,0.00571,0.0,0.0,0.0,0.0
206,-1.947471,6.525623,7.883911,-0.507232,-0.1364,0.02808,0.0,0.0,0.0,0.0
209,-1.918753,6.47323,7.831957000000001,-0.493383,-0.11829,0.04832,0.0,0.0,0.0,0.0
211,-1.9139680000000001,6.511334,7.831957000000001,-0.47953500000000004,-0.09592,0.071756,32.753826000000004,-68.930145,-54.332497,0.0
214,-1.842173,6.525623,7.817788,-0.464621,-0.07141900000000001,0.09199600000000001,0.0,0.0,0.0,0.0
216,-1.8278150000000002,6.4922830000000005,7.77528,-0.44970699999999997,-0.044787,0.11543199999999999,0.0,0.0,0.0,0.0
218,-1.732088,6.497046,7.643036,-0.437989,-0.026677,0.137802,0.0,0.0,0.0,0.0
221,-1.7225169999999999,6.4827580000000005,7.609974,-0.42840200000000006,-0.012828999999999998,0.154847,32.918499,-69.302536,-54.64402,0.0
223,-1.62679,6.444654,7.543852,-0.42201099999999997,-0.002176,0.176152,0.0,0.0,0.0,0.0
226,-1.607645,6.497047,7.449391,-0.41881499999999994,0.011672,0.195327,0.0,0.0,0.0,0.0
228,-1.526278,6.4398919999999995,7.383267999999999,-0.413488,0.011672,0.21024,0.0,0.0,0.0,0.0
231,-1.4832020000000001,6.458944,7.26047,-0.414554,0.011672,0.22302399999999997,32.256149,-69.0802,-54.093056000000004,0.0
233,-1.425766,6.454182,7.203792999999999,-0.42094499999999996,0.014868000000000001,0.24006799999999998,0.0,0.0,0.0,0.0
236,-1.363544,6.468471,7.213239,-0.429467,0.012737,0.253916,0.0,0.0,0.0,0.0
238,-1.272604,6.468471,7.099886,-0.44011999999999996,0.007411,0.263504,0.0,0.0,0.0,0.0
240,0.0,0.0,0.0,0.0,0.0,0.0,31.811626,-68.864304,-54.037186,0.0
241,-1.205596,6.444656,6.98181,-0.455034,0.00315,0.276287,0.0,0.0,0.0,0.0
243,-1.0811520000000001,6.458945,6.892072,-0.475274,-0.007503,0.2912,0.0,0.0,0.0,0.0
246,-1.085939,6.425605,6.802335,-0.50084,-0.027743,0.299722,0.0,0.0,0.0,0.0
248,-0.999785,6.458946,6.637028999999999,-0.527472,-0.051179,0.30504899999999996,0.0,0.0,0.0,0.0
250,0.0,0.0,0.0,0.0,0.0,0.0,31.698414,-68.653671,-54.955879,0.0
251,-0.870554,6.482761,6.575628999999999,-0.5615600000000001,-0.07781,0.30931,0.0,0.0,0.0,0.0
253,-0.74611,6.458946,6.476445,-0.600975,-0.108703,0.31144,0.0,0.0,0.0,0.0
256,-0.6647430000000001,6.535154,6.381985,-0.641455,-0.151313,0.306114,0.0,0.0,0.0,0.0
258,-0.6408119999999999,6.558969,6.353646,-0.6819350000000001,-0.196055,0.297592,0.0,0.0,0.0,0.0
260,0.0,0.0,0.0,0.0,0.0,0.0,31.710590000000003,-68.64188399999999,-55.574318000000005,0.0
261,-0.569017,6.539917,6.2733550000000005,-0.727741,-0.24399099999999999,0.2912,0.0,0.0,0.0,0.0
263,-0.502009,6.563733,6.2875239999999994,-0.7767430000000001,-0.294059,0.28267800000000004,0.0,0.0,0.0,0.0
266,-0.425428,6.587548,6.197786,-0.8278760000000001,-0.350518,0.26776500000000003,0.0,0.0,0.0,0.0
268,-0.41585600000000006,6.520867,6.131663,-0.880074,-0.414434,0.258177,0.0,0.0,0.0,0.0
270,0.0,0.0,0.0,0.0,0.0,0.0,31.178897999999997,-67.66409300000001,-56.627388,0.0
271,-0.401498,6.497052,6.0797099999999995,-0.9354680000000001,-0.479415,0.244329,0.0,0.0,0.0,0.0
273,-0.296199,6.454186,6.01831,-0.994057,-0.557179,0.23367600000000002,0.0,0.0,0.0,0.0
276,-0.248336,6.425608,5.947464,-1.053712,-0.636008,0.22302399999999997,0.0,0.0,0.0,0.0
278,-0.186114,6.349401,5.829388,-1.117628,-0.720164,0.21024,0.0,0.0,0.0,0.0
280,0.0,0.0,0.0,0.0,0.0,0.0,30.793621,-67.076378,-57.064308,0.0
281,-0.138251,6.292246,5.782158,-1.18687,-0.809646,0.195327,0.0,0.0,0.0,0.0
283,-0.066456,6.244617,5.720758999999999,-1.257177,-0.902324,0.184674,0.0,0.0,0.0,0.0
286,-0.037739,6.16841,5.711312,-1.3317459999999999,-1.000329,0.16763,0.0,0.0,0.0,0.0
288,0.053201,6.158884,5.574345,-1.410575,-1.10579,0.148455,0.0,0.0,0.0,0.0
290,0.0,0.0,0.0,0.0,0.0,0.0,30.927319,-66.317978,-58.822945,0.0
291,0.096277,6.120781,5.479883999999999,-1.4904700000000002,-1.2080549999999999,0.12715,0.0,0.0,0.0,0.0
293,0.11063599999999998,6.116018,5.371253,-1.5810170000000001,-1.3092549999999998,0.110106,0.0,0.0,0.0,0.0
295,0.0,0.0,0.0,0.0,0.0,0.0,0.0,0.0,0.0,224.543015
296,0.17285799999999998,6.058863,5.361807,-1.676891,-1.415781,0.090931,0.0,0.0,0.0,0.0
298,0.22071999999999997,6.030286,5.281516000000001,-1.769569,-1.524438,0.071756,0.0,0.0,0.0,0.0
300,0.0,0.0,0.0,0.0,0.0,0.0,30.190239000000002,-65.110123,-61.397507,0.0
301,0.282942,5.992182,5.248454,-1.868639,-1.640552,0.045125,0.0,0.0,0.0,0.0
303,0.235078,5.968368,5.281516000000001,-1.966643,-1.756666,0.023819,0.0,0.0,0.0,0.0
306,0.16328199999999998,5.892161,5.442099,-2.058255,-1.878106,0.004645000000000001,0.0,0.0,0.0,0.0
308,0.072341,5.768324,5.673527,-2.145607,-1.9952849999999998,-0.011334,0.0,0.0,0.0,0.0
310,0.0,0.0,0.0,0.0,0.0,0.0,28.717434,-64.80306999999999,-61.958358999999994,0.0
311,-0.047318,5.6159099999999995,5.961632,-2.225502,-2.114594,-0.029444,0.0,0.0,0.0,0.0
313,-0.109542,5.48731,6.159999,-2.29794,-2.223251,-0.040097,0.0,0.0,0.0,0.0
316,-0.157406,5.320607,6.433935,-2.3575939999999997,-2.3297779999999997,-0.050749,0.0,0.0,0.0,0.0
318,-0.171765,5.1253269999999995,6.679532000000001,-2.414053,-2.430978,-0.056075,0.0,0.0,0.0,0.0
320,0.0,0.0,0.0,0.0,0.0,0.0,27.903938,-64.72130600000001,-62.915572999999995,0.0
321,-0.171766,5.006253,6.925128999999999,-2.46199,-2.52046,-0.061402,0.0,0.0,0.0,0.0
323,-0.205271,4.915757,7.142389,-2.501405,-2.592898,-0.060337,0.0,0.0,0.0,0.0
325,-0.253135,4.720476000000001,7.3029720000000005,-2.535493,-2.655748,-0.058205999999999994,0.0,0.0,0.0,0.0
328,-0.23399099999999998,4.625217,7.496614999999999,-2.557864,-2.713273,-0.049684,0.0,0.0,0.0,0.0
330,-0.262709,4.501380999999999,7.746936,-2.574908,-2.758013,-0.039031,27.067234000000003,-62.97517,-64.582466,0.0
333,-0.243565,4.429937000000001,8.035041,-2.58343,-2.789971,-0.024118,0.0,0.0,0.0,0.0
335,-0.190915,4.339441000000001,8.247578,-2.5823650000000002,-2.80595,-0.0060079999999999995,0.0,0.0,0.0,0.0
338,-0.190916,4.158449,8.342038,-2.575973,-2.8091459999999997,0.020623,0.0,0.0,0.0,0.0
340,-0.20049,4.225131,8.904078,-2.570647,-2.7889060000000003,0.049386,25.66367,-60.81134,-66.648354,0.0
343,-0.114336,4.377545,9.220521000000002,-2.548276,-2.7377740000000004,0.072821,0.0,0.0,0.0,0.0
345,0.038827,4.429938,9.418888,-2.5131229999999998,-2.669597,0.090931,0.0,0.0,0.0,0.0
348,0.091476,4.44899,9.664486,-2.4662509999999997,-2.585441,0.100518,0.0,0.0,0.0,0.0
350,0.12976600000000002,4.458516,9.886467999999999,-2.415118,-2.485306,0.11543199999999999,24.318481,-59.751785,-68.65863,0.0
353,0.24942399999999998,4.506146,10.070667,-2.361855,-2.374519,0.134607,0.0,0.0,0.0,0.0
355,0.340364,4.54425,10.132067,-2.301136,-2.2584049999999998,0.143129,0.0,0.0,0.0,0.0
358,0.41694499999999995,4.51091,10.184018,-2.240416,-2.1359,0.154847,0.0,0.0,0.0,0.0
360,0.5701069999999999,4.496621,10.221802,-2.180761,-2.0091330000000003,0.165499,22.967194,-58.698124,-70.35968000000001,0.0
363,0.704124,4.54425,10.179295,-2.118976,-1.882367,0.170826,0.0,0.0,0.0,0.0
365,0.838141,4.54425,10.103726,-2.064647,-1.7641229999999999,0.17189100000000002,0.0,0.0,0.0,0.0
368,0.919509,4.55854,9.962036,-2.013515,-1.651205,0.170826,0.0,0.0,0.0,0.0
370,1.0487389999999999,4.591881,9.829791,-1.969839,-1.5372219999999999,0.17189100000000002,21.666023000000003,-57.281467000000006,-72.089691,0.0
373,1.211474,4.582355000000001,9.683375999999999,-1.932554,-1.434956,0.16763,0.0,0.0,0.0,0.0
375,1.302414,4.6538,9.621977000000001,-1.904857,-1.334822,0.160173,0.0,0.0,0.0,0.0
378,1.402927,4.777637,9.522793,-1.8856830000000002,-1.2400129999999998,0.145259,0.0,0.0,0.0,0.0
380,1.517799,4.768111,9.395271000000001,-1.868639,-1.147335,0.12501900000000002,20.698936,-56.078949,-73.550713,0.0
383,1.608739,4.730008,9.343318,-1.8633119999999999,-1.0706360000000001,0.098388,0.0,0.0,0.0,0.0
385,1.7188240000000001,4.768112,9.263026,-1.867573,-0.998199,0.067495,0.0,0.0,0.0,0.0
388,1.848055,4.71572,9.069383,-1.876095,-0.9364129999999999,0.035537,0.0,0.0,0.0,0.0
390,1.895918,4.658565,8.960752000000001,-1.8899439999999998,-0.884215,-0.0060079999999999995,19.875221,-55.26944399999999,-74.240997,0.0
393,1.9485669999999997,4.687142,8.904075,-1.9080529999999998,-0.838409,-0.048619,0.0,0.0,0.0,0.0
395,2.006002,4.663328,8.837953,-1.93575,-0.794733,-0.09548999999999999,0.0,0.0,0.0,0.0
398,2.0682240000000003,4.610936,8.771831,-1.9655770000000001,-0.7563840000000001,-0.146623,0.0,0.0,0.0,0.0
400,2.029933,4.572833,8.800168,-2.001796,-0.728687,-0.20308199999999998,19.813807999999998,-54.168114,-74.14200600000001,0.0
403,1.95335,4.4775730000000005,8.743492,-2.043342,-0.7052510000000001,-0.25740999999999997,0.0,0.0,0.0,0.0
405,1.862409,4.4871,8.795444999999999,-2.090214,-0.683946,-0.31280399999999997,0.0,0.0,0.0,0.0
408,1.714032,4.387078,8.833229,-2.13815,-0.676489,-0.36606700000000003,0.0,0.0,0.0,0.0
410,1.627877,4.191797,8.663199,-2.1914130000000003,-0.678619,-0.41506899999999997,19.532066,-52.639614,-76.189621,0.0
413,1.503431,4.067961,8.559292999999998,-2.254264,-0.6977939999999999,-0.455549,0.0,0.0,0.0,0.0
415,1.374199,4.048909,8.951303999999999,-2.316049,-0.727622,-0.494964,0.0,0.0,0.0,0.0
418,1.29283,3.896495,9.111888,-2.359725,-0.7563840000000001,-0.541836,0.0,0.0,0.0,0.0
420,1.173171,3.7202660000000005,9.173287,-2.392748,-0.786211,-0.586577,19.052441,-50.559307000000004,-77.623154,0.0
423,1.091802,3.5630889999999997,9.376377,-2.418315,-0.8245610000000001,-0.631318,0.0,0.0,0.0,0.0
425,0.967357,3.4011489999999998,9.541682000000002,-2.432163,-0.869302,-0.668602,0.0,0.0,0.0,0.0
428,0.8620559999999999,3.220157,9.532236,-2.434294,-0.920434,-0.7005600000000001,0.0,0.0,0.0,0.0
430,0.818979,3.0201130000000003,9.683373,-2.431098,-0.9832850000000001,-0.730387,18.737217,-49.063217,-77.970062,0.0
432,0.804619,2.786728,9.80145,-2.416184,-1.039744,-0.755954,0.0,0.0,0.0,0.0
435,0.790259,2.658129,9.966756,-2.393814,-1.093007,-0.7751279999999999,0.0,0.0,0.0,0.0
437,0.8333360000000001,2.543818,10.080108000000001,-2.366117,-1.145205,-0.791107,0.0,0.0,0.0,0.0
440,0.8907709999999999,2.429507,10.297367,-2.328832,-1.181424,-0.806021,18.320960999999997,-47.344711,-79.854095,0.0
442,0.94342,2.386641,10.519347999999999,-2.285157,-1.20699,-0.8220000000000001,0.0,0.0,0.0,0.0
444,0.0,0.0,0.0,0.0,0.0,0.0,0.0,0.0,0.0,321.921204
445,1.0247879999999998,2.343775,10.679933,-2.240416,-1.2155129999999998,-0.8337180000000001,0.0,0.0,0.0,0.0
447,1.063078,2.377116,10.897191000000001,-2.180761,-1.20486,-0.8475659999999999,0.0,0.0,0.0,0.0
450,1.16359,2.4628490000000003,11.043605,-2.118976,-1.16651,-0.859284,18.102318,-46.389846999999996,-80.95405600000001,0.0
452,1.206667,2.54382,11.100282,-2.0529290000000002,-1.114312,-0.873133,0.0,0.0,0.0,0.0
455,1.240171,2.691472,11.199466000000001,-1.984752,-1.047201,-0.88485,0.0,0.0,0.0,0.0
457,1.283247,2.7676790000000002,11.275034,-1.9133799999999999,-0.958784,-0.8997639999999999,0.0,0.0,0.0,0.0
460,1.316751,2.829598,11.279755999999999,-1.839877,-0.8479969999999999,-0.908286,17.787094,-44.893757,-81.30096400000001,0.0
462,1.326323,2.901042,11.326986,-1.769569,-0.728687,-0.924265,0.0,0.0,0.0,0.0
465,1.412476,2.924857,11.416723,-1.7024580000000002,-0.588072,-0.9317219999999999,0.0,0.0,0.0,0.0
467,1.474698,3.001065,11.426169999999999,-1.6342809999999999,-0.42934799999999995,-0.942375,0.0,0.0,0.0,0.0
470,1.493843,3.043931,11.360047,-1.5650389999999998,-0.259971,-0.9572879999999999,17.423717,-43.021137,-81.970421,0.0
472,1.4938420000000001,3.029643,11.237248,-1.495796,-0.084203,-0.971137,0.0,0.0,0.0,0.0
475,1.455551,3.139191,11.19474,-1.430815,0.10328399999999999,-0.987116,0.0,0.0,0.0,0.0
477,1.445978,3.186821,11.19474,-1.366899,0.30035700000000004,-1.005225,0.0,0.0,0.0,0.0
480,1.398113,3.182058,11.175848,-1.30831,0.49317,-1.022269,17.660408,-41.74564,-82.54342700000001,0.0
482,1.254522,3.253503,11.086110000000001,-1.2497200000000002,0.685983,-1.032922,0.0,0.0,0.0,0.0
485,1.130077,3.291607,11.123895,-1.201784,0.8787959999999999,-1.0457049999999999,0.0,0.0,0.0,0.0
487,0.919477,3.258267,11.190017,-1.159173,1.0556290000000002,-1.054227,0.0,0.0,0.0,0.0
490,0.675372,3.220163,11.227801,-1.120824,1.217549,-1.0531620000000002,18.937565,-40.549507,-83.11816400000001,0.0
492,0.325968,3.196349,11.515906,-1.0909959999999999,1.360295,-1.04464,0.0,0.0,0.0,0.0
495,0.034,3.086801,11.766227,-1.056908,1.496648,-1.023335,0.0,0.0,0.0,0.0
497,-0.257968,2.862942,12.106285,-1.020689,1.6138270000000001,-0.992442,0.0,0.0,0.0,0.0
500,-0.473354,2.634321,12.446342,-0.980209,1.716093,-0.9530270000000001,20.110374,-39.345734,-83.677261,0.0
502,-0.640877,2.5009580000000002,12.635263,-0.9269459999999999,1.815162,-0.910417,0.0,0.0,0.0,0.0
505,-0.693527,2.272337,12.814739,-0.859834,1.897187,-0.866741,0.0,0.0,0.0,0.0
507,-0.813187,2.048478,12.899755,-0.779939,1.9611029999999998,-0.826261,0.0,0.0,0.0,0.0
510,-0.899342,1.8436709999999998,13.09812,-0.686196,2.012236,-0.790042,21.005016,-37.770775,-83.445374,0.0
512,-0.8897700000000001,1.624576,13.244534,-0.580735,2.061238,-0.758084,0.0,0.0,0.0,0.0
515,-0.918488,1.519791,13.475963,-0.461425,2.101718,-0.731452,0.0,0.0,0.0,0.0
517,-0.9041299999999999,1.424532,13.598761999999999,-0.329333,2.139002,-0.706951,0.0,0.0,0.0,0.0
520,-0.9328489999999999,1.3006959999999999,13.76879,-0.19297899999999998,2.183743,-0.683516,23.013439,-37.576553000000004,-82.534485,0.0
522,-0.937636,1.3340370000000001,13.915204000000001,-0.047037999999999996,2.248724,-0.665406,0.0,0.0,0.0,0.0
525,-0.93285,1.319748,14.028557999999999,0.09890299999999999,2.3286189999999998,-0.6419699999999999,0.0,0.0,0.0,0.0
527,-0.8706280000000001,1.3911930000000001,14.208032000000001,0.24804,2.425558,-0.625991,0.0,0.0,0.0,0.0
530,-0.822765,1.4483489999999999,14.387507000000001,0.39611199999999996,2.550194,-0.605751,25.086319,-38.480724,-81.87719,0.0
532,-0.7653300000000001,1.476926,14.505582999999998,0.539922,2.705722,-0.5801850000000001,0.0,0.0,0.0,0.0
535,-0.664817,1.576949,14.656719,0.682668,2.8868169999999997,-0.557814,0.0,0.0,0.0,0.0
537,-0.540373,1.7007860000000001,14.713396,0.8200870000000001,3.087087,-0.5290520000000001,0.0,0.0,0.0,0.0
539,-0.43507399999999996,1.8341490000000003,14.685057999999998,0.9511139999999999,3.3065309999999997,-0.501355,0.0,0.0,0.0,0.0
540,0.0,0.0,0.0,0.0,0.0,0.0,27.03577,-38.446514,-81.871658,0.0
542,-0.277125,1.9341709999999999,14.727565,1.07788,3.539824,-0.473659,0.0,0.0,0.0,0.0
544,-0.12396199999999999,2.067534,14.689779000000001,1.209973,3.790161,-0.45341899999999996,0.0,0.0,0.0,0.0
547,-0.018664,2.253289,14.694503,1.336739,4.039432,-0.43104799999999993,0.0,0.0,0.0,0.0
549,0.029199,2.448571,14.614211,1.4592450000000001,4.290833999999999,-0.40867800000000004,0.0,0.0,0.0,0.0
550,0.0,0.0,0.0,0.0,0.0,0.0,29.813941999999997,-38.479332,-81.681969,0.0
552,0.096207,2.5724080000000002,14.562257999999998,1.58388,4.548628,-0.387372,0.0,0.0,0.0,0.0
554,0.177575,2.691482,14.543365,1.709582,4.811748000000001,-0.359675,0.0,0.0,0.0,0.0
557,0.12492400000000001,2.739112,14.496135,1.8320869999999998,5.071672,-0.339435,0.0,0.0,0.0,0.0
559,0.000479,2.701009,14.330829000000001,1.958853,5.333727,-0.316,0.0,0.0,0.0,0.0
560,0.0,0.0,0.0,0.0,0.0,0.0,33.248108,-38.952213,-80.33586899999999,0.0
562,-0.052172,2.7343490000000004,14.156076,2.078163,5.580868,-0.282977,0.0,0.0,0.0,0.0
564,-0.13354100000000002,2.7438759999999998,13.943539999999999,2.18895,5.817357,-0.24782300000000002,0.0,0.0,0.0,0.0
567,-0.324995,2.7010099999999997,13.721557,2.295476,6.033606,-0.20627800000000002,0.0,0.0,0.0,0.0
569,-0.497304,2.758165,13.546804999999999,2.398807,6.218961,-0.165797,0.0,0.0,0.0,0.0
570,0.0,0.0,0.0,0.0,0.0,0.0,37.148914000000005,-40.568779,-78.532845,0.0
572,-0.593032,2.753402,13.471236,2.49255,6.384077,-0.118926,0.0,0.0,0.0,0.0
574,-0.746196,2.7105360000000003,13.310654000000001,2.587359,6.521496,-0.07205399999999999,0.0,0.0,0.0,0.0
577,-0.9472229999999999,2.7010099999999997,13.2587,2.681102,6.642936,-0.021987,0.0,0.0,0.0,0.0
579,-1.119532,2.615278,13.348435999999998,2.776976,6.747332000000001,0.038733,0.0,0.0,0.0,0.0
580,0.0,0.0,0.0,0.0,0.0,0.0,41.02673,-42.733658,-76.694199,0.0
582,-1.291842,2.581937,13.400391,2.87498,6.84214,0.095192,0.0,0.0,0.0,0.0
584,-1.4545780000000001,2.4723889999999997,13.452342999999999,2.977245,6.932688000000001,0.14419400000000002,0.0,0.0,0.0,0.0
587,-1.612528,2.396183,13.509020999999999,3.091228,7.016844,0.198523,0.0,0.0,0.0,0.0
589,-1.7944099999999998,2.3342650000000003,13.405114000000001,3.212668,7.090347,0.25498200000000004,0.0,0.0,0.0,0.0
590,0.0,0.0,0.0,0.0,0.0,0.0,44.410229,-43.99321,-72.52282,0.0
592,-1.9762919999999997,2.210428,13.263422,3.336239,7.145741,0.30504899999999996,0.0,0.0,0.0,0.0
594,-2.1486009999999998,2.153273,13.069778,3.472593,7.185155,0.354051,0.0,0.0,0.0,487.83966100000004
597,-2.253901,2.10088,12.77695,3.611077,7.2139169999999995,0.407314,0.0,0.0,0.0,0.0
599,-2.4070650000000002,2.005621,12.408553,3.7431699999999997,7.220308999999999,0.456316,0.0,0.0,0.0,0.0
600,0.0,0.0,0.0,0.0,0.0,0.0,47.991344,-46.016399,-67.567375,0.0
602,-2.5075790000000002,1.9770439999999998,12.007095,3.871001,7.206460000000001,0.508514,0.0,0.0,0.0,0.0
604,-2.56023,1.9627560000000002,11.567853,3.98605,7.174502,0.55219,0.0,0.0,0.0,0.0
607,-2.7086069999999998,2.000859,11.010535,4.08725,7.127631,0.593735,0.0,0.0,0.0,0.0
609,-2.828266,1.95323,10.453218,4.174601999999999,7.0658449999999995,0.637411,0.0,0.0,0.0,0.0
610,0.0,0.0,0.0,0.0,0.0,0.0,51.73518,-49.151512,-62.57193,0.0
612,-2.943139,2.043726,9.966745,4.236387000000001,6.989147,0.675761,0.0,0.0,0.0,0.0
614,-3.062799,2.205667,9.385813,4.280063,6.893273,0.716241,0.0,0.0,0.0,0.0
617,-3.15374,2.362845,8.875725,4.305629,6.785680999999999,0.755656,0.0,0.0,0.0,0.0
619,-3.326049,2.6629110000000003,8.455375,4.30989,6.668502,0.785483,0.0,0.0,0.0,0.0
620,0.0,0.0,0.0,0.0,0.0,0.0,54.347786,-51.871967,-55.732780000000005,0.0
622,-3.4792129999999997,2.872481,8.086979,4.307759,6.544932,0.816376,0.0,0.0,0.0,0.0
624,-3.5893,3.043948,7.841381,4.296041000000001,6.413905000000001,0.845138,0.0,0.0,0.0,0.0
627,-3.718532,3.234467,7.671351,4.272605,6.287138,0.870704,0.0,0.0,0.0,0.0
629,-3.8334050000000004,3.3392519999999997,7.463538000000001,4.247039,6.165698,0.901597,0.0,0.0,0.0,0.0
630,0.0,0.0,0.0,0.0,0.0,0.0,56.32543199999999,-54.34356700000001,-49.734161,0.0
632,-3.909987,3.486903,7.236833,4.218277,6.057041000000001,0.930359,0.0,0.0,0.0,0.0
634,-4.000928,3.525007,7.0715259999999995,4.1852540000000005,5.95158,0.961251,0.0,0.0,0.0,0.0
637,-4.005715,3.6488449999999997,6.9912339999999995,4.153296,5.851445,0.991079,0.0,0.0,0.0,0.0
639,-4.077511,3.7536300000000002,6.896774000000001,4.120273,5.761963,1.019841,0.0,0.0,0.0,0.0
640,0.0,0.0,0.0,0.0,0.0,0.0,57.97508199999999,-56.595135,-44.313751,0.0
642,-4.125375,3.872704,6.693683,4.088315000000001,5.676742,1.0486030000000002,0.0,0.0,0.0,0.0
644,-4.192385,4.077511,6.566161,4.061684,5.597913,1.077365,0.0,0.0,0.0,0.0
646,-4.292898999999999,4.2204,6.358348,4.033987000000001,5.522279,1.09867,0.0,0.0,0.0,0.0
649,-4.38384,4.306133,6.164703,4.004159,5.439188,1.123171,0.0,0.0,0.0,0.0
650,0.0,0.0,0.0,0.0,0.0,0.0,58.622475,-58.20428100000001,-39.700294,0.0
651,-4.469995,4.363289,6.093858,3.969006,5.359293,1.151934,0.0,0.0,0.0,0.0
654,-4.541791,4.453785,5.947443,3.931721,5.28792,1.181761,0.0,0.0,0.0,0.0
656,-4.623158999999999,4.591912000000001,5.843537,3.889111,5.218678,1.2115879999999999,0.0,0.0,0.0,0.0
659,-4.627946,4.587149,5.909658,3.8422389999999997,5.167546,1.23822,0.0,0.0,0.0,0.0
660,0.0,0.0,0.0,0.0,0.0,0.0,58.971764,-59.98760600000001,-34.414833,0.0
661,-4.580083999999999,4.610964,6.027735,3.80389,5.14624,1.266982,0.0,0.0,0.0,0.0
664,-4.565725,4.625254,6.263886,3.767671,5.152632,1.2882870000000002,0.0,0.0,0.0,0.0
666,-4.537008,4.62049,6.377239,3.741039,5.178198,1.306397,0.0,0.0,0.0,0.0
669,-4.541795,4.744328,6.5236529999999995,3.72506,5.217613,1.324506,0.0,0.0,0.0,0.0
670,0.0,0.0,0.0,0.0,0.0,0.0,59.260718999999995,-61.406181000000004,-28.833483,0.0
671,-4.613591,4.891979,6.646451,3.714407,5.262354,1.3340940000000001,0.0,0.0,0.0,0.0
674,-4.709319,4.930083,6.712574000000001,3.716538,5.313487,1.351138,0.0,0.0,0.0,0.0
676,-4.766755,4.97295,6.797588,3.7325169999999996,5.364619,1.374574,0.0,0.0,0.0,0.0
679,-4.781115,4.982476,6.807034,3.757018,5.417882,1.4054659999999999,0.0,0.0,0.0,0.0
680,0.0,0.0,0.0,0.0,0.0,0.0,59.436478,-62.61411999999999,-24.170826,0.0
681,-4.824193,4.987239,6.736188,3.7825839999999995,5.469015,1.441685,0.0,0.0,0.0,0.0
684,-4.824193,4.953899,6.632281,3.817738,5.508430000000001,1.4853610000000002,0.0,0.0,0.0,0.0
686,-4.872058,4.85864,6.433914,3.858218,5.544649,1.534363,0.0,0.0,0.0,0.0
689,-4.881631,4.839589,6.325284,3.892307,5.578737,1.586561,0.0,0.0,0.0,0.0
690,0.0,0.0,0.0,0.0,0.0,0.0,59.110428000000006,-63.238471999999994,-19.311020000000003,0.0
691,-4.89599,4.791958999999999,6.112748000000001,3.932786,5.597912,1.637694,0.0,0.0,0.0,0.0
694,-4.939068,4.758619,5.86715,3.969006,5.6053690000000005,1.6898919999999997,0.0,0.0,0.0,0.0
696,-5.010865,4.768145,5.593214,4.003094,5.601108,1.74422,0.0,0.0,0.0,0.0
699,-5.101806,4.801486,5.352339,4.031855999999999,5.577672,1.8006790000000001,0.0,0.0,0.0,0.0
700,0.0,0.0,0.0,0.0,0.0,0.0,58.343970999999996,-64.380577,-14.353056,0.0
701,-5.135311,4.796723,5.02645,4.059553,5.539322,1.8550080000000002,0.0,0.0,0.0,0.0
704,-5.1879610000000005,4.825302,4.629715,4.077662,5.483929,1.9104009999999998,0.0,0.0,0.0,0.0
706,-5.2023209999999995,4.88722,4.100735,4.094707,5.401904,1.970056,0.0,0.0,0.0,0.0
709,-5.264544,4.839591,3.5575870000000003,4.105359,5.294312000000001,2.0297110000000003,0.0,0.0,0.0,0.0
710,0.0,0.0,0.0,0.0,0.0,0.0,57.129959,-65.309731,-9.184616,0.0
711,-5.374631,4.7729099999999995,2.872747,4.0979019999999995,5.154762,2.0872349999999997,0.0,0.0,0.0,0.0
714,-5.503863,4.801488,2.2729220000000003,4.078728,4.987516,2.145824,0.0,0.0,0.0,0.0
716,-5.61395,4.82054,1.795896,4.049965,4.790442,2.202283,0.0,0.0,0.0,0.0
719,-5.757541000000001,4.849118,1.25747,4.0073550000000004,4.57952,2.256612,0.0,0.0,0.0,0.0
720,0.0,0.0,0.0,0.0,0.0,0.0,55.078102,-66.180695,-3.736504,0.0
721,-5.915491,4.877696,0.813505,3.955157,4.348358,2.300288,0.0,0.0,0.0,0.0
724,-6.035151,4.94914,0.341202,3.892307,4.090564,2.3450290000000003,0.0,0.0,0.0,0.0
726,-6.1787410000000005,5.025348,-0.03664,3.8241300000000003,3.826379,2.383378,0.0,0.0,0.0,0.0
729,-6.274469,5.030111,-0.405037,3.748496,3.561128,2.420662,0.0,0.0,0.0,0.0
730,0.0,0.0,0.0,0.0,0.0,0.0,52.826668000000005,-67.027527,1.279044,0.0
731,-6.3414779999999995,5.063452,-0.716757,3.66434,3.289486,2.456882,0.0,0.0,0.0,0.0
734,-6.355837999999999,5.068215,-0.9481860000000001,3.5759230000000004,3.016778,2.492035,0.0,0.0,0.0,0.0
736,-6.2984029999999995,5.049164,-1.335474,3.4779190000000004,2.750463,2.5293189999999997,0.0,0.0,0.0,0.0
739,-6.226608000000001,5.1920519999999994,-1.628303,3.3788489999999998,2.482016,2.566604,0.0,0.0,0.0,0.0
740,0.0,0.0,0.0,0.0,0.0,0.0,50.569424,-67.668419,5.205658000000001,0.0
741,-6.1691720000000005,5.258734,-1.9778069999999999,3.273388,2.2157,2.598562,0.0,0.0,0.0,0.0
744,-6.044729,5.373044999999999,-2.374542,3.162601,1.9419279999999999,2.633715,0.0,0.0,0.0,121.55095700000001
746,-5.929857,5.496882,-2.615417,3.046487,1.6681549999999998,2.658216,0.0,0.0,0.0,0.0
749,-5.757549,5.654058999999999,-2.7051540000000003,2.930373,1.4029040000000002,2.681652,0.0,0.0,0.0,0.0
750,0.0,0.0,0.0,0.0,0.0,0.0,48.811214,-68.68400600000001,7.691582,0.0
751,-5.575668,5.816001,-2.8090610000000003,2.818521,1.1493719999999998,2.6955,0.0,0.0,0.0,0.0
753,-5.350709999999999,6.011282,-2.917691,2.706668,0.910752,2.705088,0.0,0.0,0.0,0.0
756,-5.111393,6.1017790000000005,-2.889353,2.596946,0.684917,2.707218,0.0,0.0,0.0,0.0
758,-4.8433589999999995,6.2256160000000005,-2.922414,2.484028,0.47506000000000004,2.6923049999999997,0.0,0.0,0.0,0.0
760,0.0,0.0,0.0,0.0,0.0,0.0,47.135242,-68.779449,9.64908,0.0
761,-4.537033999999999,6.325638,-2.889353,2.3775009999999996,0.283312,2.6710000000000003,0.0,0.0,0.0,0.0
763,-4.326435,6.425661,-2.922415,2.2731060000000003,0.106478,2.641172,0.0,0.0,0.0,0.0
766,-4.039255000000001,6.56855,-2.842123,2.166579,-0.053311000000000004,2.607084,0.0,0.0,0.0,0.0
768,-3.790365,6.692386,-2.6673709999999997,2.061118,-0.186469,2.567669,0.0,0.0,0.0,0.0
770,0.0,0.0,0.0,0.0,0.0,0.0,44.907356,-68.65430500000001,11.832689,0.0
771,-3.5271169999999996,6.825749000000001,-2.535126,1.960984,-0.30364800000000003,2.520797,0.0,0.0,0.0,0.0
773,-3.254295,6.973400999999999,-2.223406,1.870436,-0.387804,2.464338,0.0,0.0,0.0,0.0
776,-3.03891,7.054371000000001,-1.8219490000000003,1.7873459999999999,-0.441067,2.4025529999999997,0.0,0.0,0.0,0.0
778,-2.847457,7.163919,-1.538567,1.710647,-0.462372,2.335441,0.0,0.0,0.0,0.0
780,0.0,0.0,0.0,0.0,0.0,0.0,43.649868,-69.516899,13.924560999999999,0.0
781,-2.651217,7.254416,-1.193786,1.641405,-0.448524,2.263004,0.0,0.0,0.0,0.0
783,-2.454978,7.340149,-0.8678969999999999,1.577489,-0.404848,2.1926959999999998,0.0,0.0,0.0,0.0
786,-2.330534,7.4401720000000005,-0.556177,1.52316,-0.338802,2.120258,0.0,0.0,0.0,0.0
788,-2.148653,7.511616,-0.315303,1.479485,-0.25145,2.04569,0.0,0.0,0.0,0.0
790,0.0,0.0,0.0,0.0,0.0,0.0,42.752777,-69.830536,14.697029,0.0
791,-1.9572,7.625927000000001,-0.09804299999999999,1.4422,-0.14918499999999998,1.972187,0.0,0.0,0.0,0.0
793,-1.856687,7.6973720000000005,0.095601,1.404916,-0.039463,1.902944,0.0,0.0,0.0,0.0
796,-1.756175,7.845024,0.199507,1.37935,0.068129,1.8358330000000003,0.0,0.0,0.0,0.0
798,-1.703525,7.897417,0.199507,1.354849,0.17572000000000002,1.770852,0.0,0.0,0.0,0.0
799,0.0,0.0,0.0,0.0,0.0,0.0,40.798321,-70.607224,15.197617000000001,0.0
801,-1.631731,7.906942999999999,0.185338,1.335674,0.275855,1.705871,0.0,0.0,0.0,0.0
803,-1.6700220000000001,7.978388000000001,0.07198500000000001,1.316499,0.356815,1.6451509999999998,0.0,0.0,0.0,0.0
806,-1.703527,7.968861,-0.06970599999999999,1.29839,0.420731,1.587626,0.0,0.0,0.0,0.0
808,-1.7083139999999999,7.959336,-0.310581,1.279215,0.46334200000000003,1.5279719999999999,0.0,0.0,0.0,0.0
809,0.0,0.0,0.0,0.0,0.0,0.0,39.675621,-71.447998,15.727757,0.0
811,-1.6987419999999998,7.892656,-0.556179,1.258975,0.485712,1.475774,0.0,0.0,0.0,0.0
813,-1.7274610000000001,7.802159,-0.815945,1.236604,0.48358199999999996,1.426772,0.0,0.0,0.0,0.0
816,-1.717889,7.835499,-1.16545,1.209973,0.447363,1.3767040000000001,0.0,0.0,0.0,0.0
818,-1.679599,7.783108,-1.5244,1.183341,0.394099,1.326637,0.0,0.0,0.0,0.0
819,0.0,0.0,0.0,0.0,0.0,0.0,38.780491,-71.02211,16.14871,0.0
821,-1.6700270000000002,7.792634,-1.8502900000000002,1.150318,0.304617,1.272308,0.0,0.0,0.0,0.0
823,-1.593446,7.76882,-2.242301,1.110903,0.18743800000000002,1.224372,0.0,0.0,0.0,0.0
826,-1.5790870000000001,7.802161,-2.6295900000000003,1.0640319999999999,0.050019,1.170043,0.0,0.0,0.0,0.0
828,-1.516866,7.797397999999999,-3.064109,1.0139639999999999,-0.11829200000000001,1.112519,0.0,0.0,0.0,0.0
829,0.0,0.0,0.0,0.0,0.0,0.0,37.841064,-71.165146,17.687559,0.0
831,-1.397208,7.84979,-3.418337,0.9521790000000001,-0.313236,1.052864,0.0,0.0,0.0,0.0
833,-1.2871219999999999,7.873606,-3.7820099999999996,0.8744149999999999,-0.523093,0.991079,0.0,0.0,0.0,0.0
836,-1.157892,7.897419999999999,-4.117344999999999,0.79452,-0.754255,0.9197059999999999,0.0,0.0,0.0,0.0
838,-1.04302,8.045073,-4.362944000000001,0.710364,-1.008853,0.849399,0.0,0.0,0.0,0.0
839,0.0,0.0,0.0,0.0,0.0,0.0,37.618225,-71.901176,18.688779999999998,0.0
841,-0.928148,8.178434,-4.514081,0.615556,-1.2794299999999998,0.77483,0.0,0.0,0.0,0.0
843,-0.8228489999999999,8.359426,-4.584926,0.522878,-1.553202,0.7002619999999999,0.0,0.0,0.0,0.0
846,-0.7702,8.440399000000001,-4.636879,0.421678,-1.831236,0.623563,0.0,0.0,0.0,0.0
848,-0.727123,8.568997999999999,-4.750233000000001,0.316217,-2.107139,0.542603,0.0,0.0,0.0,0.0
849,0.0,0.0,0.0,0.0,0.0,0.0,37.668335,-71.538177,18.659817,0.0
851,-0.741483,8.726175,-4.835247,0.201168,-2.391565,0.459512,0.0,0.0,0.0,0.0
853,-0.707979,8.826199,-4.873031,0.074402,-2.6695990000000003,0.371095,0.0,0.0,0.0,0.0
855,-0.703194,8.821436,-5.033615,-0.064082,-2.9401759999999997,0.280548,0.0,0.0,0.0,0.0
858,-0.736699,8.830961,-5.175306,-0.213219,-3.219275,0.184674,0.0,0.0,0.0,0.0
859,0.0,0.0,0.0,0.0,0.0,0.0,37.65752,-72.074715,18.077002,0.0
860,-0.660118,8.826199,-5.255597,-0.366617,-3.4951779999999997,0.08773500000000001,0.0,0.0,0.0,0.0
863,-0.583537,8.807148,-5.255598,-0.526407,-3.780668,-0.004943,0.0,0.0,0.0,0.0
865,-0.478238,8.792860000000001,-5.32172,-0.68087,-4.069355000000001,-0.102947,0.0,0.0,0.0,0.0
868,-0.377725,8.8262,-5.316997,-0.8300069999999999,-4.362302,-0.192429,0.0,0.0,0.0,0.0
869,0.0,0.0,0.0,0.0,0.0,0.0,38.26395,-72.454102,16.466064000000003,0.0
870,-0.21499000000000001,8.911934,-5.1658599999999995,-0.973817,-4.661642,-0.285107,0.0,0.0,0.0,0.0
873,-0.0714,8.992905,-4.91554,-1.1016489999999999,-4.954589,-0.377785,0.0,0.0,0.0,0.0
875,0.096121,9.069111,-4.471575,-1.208175,-5.227296,-0.467267,0.0,0.0,0.0,0.0
878,0.230138,9.021482,-3.999272,-1.300853,-5.474437,-0.559945,0.0,0.0,0.0,0.0
879,0.0,0.0,0.0,0.0,0.0,0.0,40.194012,-72.541595,13.556303,0.0
880,0.09612000000000001,8.997667,-3.309709,-1.377552,-5.676837,-0.659014,0.0,0.0,0.0,0.0
883,-0.109694,8.930986,-2.634316,-1.445729,-5.817451999999999,-0.751692,0.0,0.0,0.0,0.0
885,-0.310721,8.826202,-1.90697,-1.5032530000000002,-5.905869,-0.830522,0.0,0.0,0.0,0.0
888,-0.5165350000000001,8.697600999999999,-1.2835299999999998,-1.555451,-5.936762,-0.904025,0.0,0.0,0.0,0.0
889,0.0,0.0,0.0,0.0,0.0,0.0,41.977654,-72.239014,10.030405,0.0
890,-0.8515799999999999,8.535664,-0.6931510000000001,-1.595931,-5.902673,-0.966875,0.0,0.0,0.0,0.0
893,-1.11483,8.307041,-0.230294,-1.63215,-5.8259739999999995,-1.0126819999999999,0.0,0.0,0.0,0.0
895,-1.464234,8.183205000000001,0.081426,-1.658782,-5.715187,-1.0457049999999999,0.0,0.0,0.0,61.987865
898,-1.756202,8.073656,0.327023,-1.688609,-5.582029,-1.061684,0.0,0.0,0.0,0.0
899,0.0,0.0,0.0,0.0,0.0,0.0,43.702061,-72.308273,6.9972970000000005,0.0
900,-2.091247,7.992686999999999,0.336469,-1.722698,-5.443544999999999,-1.060619,0.0,0.0,0.0,0.0
903,-2.397574,7.906953999999999,0.142825,-1.756786,-5.301865,-1.052096,0.0,0.0,0.0,0.0
905,-2.646465,7.921243,-0.13583399999999998,-1.800462,-5.178294999999999,-1.029726,0.0,0.0,0.0,0.0
908,-2.87621,7.935532000000001,-0.508954,-1.8569209999999998,-5.077095,-1.0030940000000002,0.0,0.0,0.0,0.0
909,0.0,0.0,0.0,0.0,0.0,0.0,45.5369,-72.37928000000001,3.6393379999999995,0.0
910,-3.153819,7.873614,-0.882073,-1.919772,-5.007853,-0.973267,0.0,0.0,0.0,0.0
913,-3.306982,7.840273,-1.212685,-1.9954049999999999,-4.967372,-0.937048,0.0,0.0,0.0,0.0
915,-3.460146,7.811696,-1.56219,-2.076365,-4.955655,-0.894438,0.0,0.0,0.0,0.0
918,-3.503224,7.81646,-1.869187,-2.172239,-4.983351,-0.8496959999999999,0.0,0.0,0.0,0.0
919,0.0,0.0,0.0,0.0,0.0,0.0,46.921127,-72.240288,0.646463,0.0
920,-3.5798059999999996,7.887903999999999,-2.180907,-2.280896,-5.040876,-0.804955,0.0,0.0,0.0,0.0
923,-3.685107,7.81646,-2.5823650000000002,-2.4034009999999997,-5.128227,-0.7623449999999999,0.0,0.0,0.0,0.0
925,-3.685107,7.730726,-2.8326860000000003,-2.5386900000000003,-5.252863,-0.714408,0.0,0.0,0.0,0.0
928,-3.627672,7.597364,-2.9791,-2.684631,-5.405196,-0.666471,0.0,0.0,0.0,0.0
929,0.0,0.0,0.0,0.0,0.0,0.0,47.523708,-71.674217,-2.404919,0.0
930,-3.570236,7.44495,-3.007438,-2.829507,-5.576703,-0.6206649999999999,0.0,0.0,0.0,0.0
933,-3.460151,7.254432,-3.059392,-2.989296,-5.768451,-0.575924,0.0,0.0,0.0,0.0
935,-3.259125,7.0305729999999995,-3.116068,-3.1522810000000003,-5.9772419999999995,-0.534378,0.0,0.0,0.0,0.0
938,-3.072458,6.8638699999999995,-3.168022,-3.314201,-6.216927,-0.496029,0.0,0.0,0.0,0.0
939,0.0,0.0,0.0,0.0,0.0,0.0,48.693424,-71.314003,-6.455462000000001,0.0
940,-2.732628,6.716219000000001,-3.0405,-3.472926,-6.490699,-0.465136,0.0,0.0,0.0,0.0
943,-2.4071569999999998,6.654300999999999,-2.5540279999999997,-3.626324,-6.760211,-0.44063500000000005,0.0,0.0,0.0,0.0
945,-2.048182,6.4637839999999995,-2.048664,-3.776526,-7.012678999999999,-0.422526,0.0,0.0,0.0,0.0
948,-1.641343,6.373287,-1.5763610000000001,-3.9224669999999997,-7.2353190000000005,-0.412938,0.0,0.0,0.0,0.0
949,0.0,0.0,0.0,0.0,0.0,0.0,49.380085,-72.353371,-11.889358999999999,0.0
950,-1.287153,6.258977,-1.113504,-4.057755,-7.435588,-0.412938,0.0,0.0,0.0,0.0
953,-0.9042459999999999,6.173244,-0.584525,-4.197305,-7.6060300000000005,-0.414004,0.0,0.0,0.0,0.0
955,-0.49262100000000003,6.1399040000000005,-0.107499,-4.324071,-7.756232000000001,-0.417199,0.0,0.0,0.0,0.0
958,-0.109714,6.144666,0.407312,-4.444446,-7.88939,-0.42465600000000003,0.0,0.0,0.0,0.0
959,0.0,0.0,0.0,0.0,0.0,0.0,49.036289000000004,-71.828438,-18.333779999999997,0.0
960,0.30191100000000004,6.201822,0.7946,-4.56056,-8.007633,-0.43317799999999995,0.0,0.0,0.0,0.0
962,0.5890920000000001,6.287555,1.2243959999999998,-4.671347,-8.11416,-0.44063500000000005,0.0,0.0,0.0,0.0
965,0.881058,6.43997,1.606961,-4.775743,-8.204707,-0.456614,0.0,0.0,0.0,0.0
967,1.0916569999999999,6.668591999999999,2.173725,-4.878008,-8.270754,-0.476854,0.0,0.0,0.0,0.0
969,0.0,0.0,0.0,0.0,0.0,0.0,48.443405,-70.37809,-24.332062,0.0
970,1.125161,6.868637,2.77355,-4.970686,-8.310169,-0.50242,0.0,0.0,0.0,0.0
972,1.115587,6.978185000000001,3.396989,-5.04845,-8.31443,-0.539705,0.0,0.0,0.0,0.0
975,1.029432,7.011525999999999,3.9306919999999996,-5.114497,-8.290995,-0.571663,0.0,0.0,0.0,0.0
977,0.833191,6.959134,4.379379,-5.173086,-8.246253999999999,-0.6110770000000001,0.0,0.0,0.0,0.0
979,0.0,0.0,0.0,0.0,0.0,0.0,47.47242,-69.070709,-30.879587,0.0
980,0.627378,6.854349000000001,4.761945,-5.211435,-8.186599000000001,-0.647296,0.0,0.0,0.0,0.0
982,0.330623,6.67812,5.2248019999999995,-5.242328,-8.116291,-0.672863,0.0,0.0,0.0,0.0
985,0.024296,6.4256839999999995,5.725443,-5.259372,-8.032136,-0.688842,0.0,0.0,0.0,0.0
987,-0.396903,6.187536,6.070224,-5.262568,-7.932001,-0.694168,0.0,0.0,0.0,0.0
989,0.0,0.0,0.0,0.0,0.0,0.0,45.973865999999994,-67.519173,-38.437884999999994,0.0
990,-0.8563930000000001,5.9351,6.415006,-5.2604370000000005,-7.819083,-0.684581,0.0,0.0,0.0,0.0
992,-1.2680200000000001,5.611219,6.736171000000001,-5.24872,-7.700839,-0.656884,0.0,0.0,0.0,0.0
995,-1.612637,5.315917,7.019553,-5.231676,-7.567680999999999,-0.613208,0.0,0.0,0.0,0.0
997,-1.928537,4.977747,7.302935000000001,-5.210369999999999,-7.437717999999999,-0.5567489999999999,0.0,0.0,0.0,0.0
999,0.0,0.0,0.0,0.0,0.0,0.0,44.358788,-65.971779,-45.362106,0.0
1000,-2.1917869999999997,4.672918,7.694946000000001,-5.183739,-7.301365,-0.483246,0.0,0.0,0.0,0.0
1002,-2.368882,4.420482,8.044450999999999,-5.148585,-7.169272,-0.396959,0.0,0.0,0.0,0.0
1005,-2.589055,4.058497,8.337277,-5.108105,-7.04144,-0.298955,0.0,0.0,0.0,0.0
1007,-2.842732,3.6774620000000002,9.49442,-5.075082,-6.921066000000001,-0.190298,0.0,0.0,0.0,0.0
1009,0.0,0.0,0.0,0.0,0.0,0.0,42.042057,-64.028511,-51.123596,0.0
1010,-2.6608509999999996,3.682225,11.043574000000001,-5.001579,-6.786842999999999,-0.079511,0.0,0.0,0.0,0.0
1012,-2.478971,3.65841,11.034127999999999,-4.884399,-6.646228,0.020624,0.0,0.0,0.0,0.0
1015,-2.7039299999999997,3.567914,10.490979,-4.7629589999999995,-6.526918,0.12288900000000001,0.0,0.0,0.0,0.0
1017,-2.770939,3.739382,10.023399000000001,-4.64152,-6.444893,0.22195900000000002,0.0,0.0,0.0,0.0
1019,0.0,0.0,0.0,0.0,0.0,0.0,38.887474,-62.02705,-56.605408,0.0
1020,-2.426323,3.891796,9.872262,-4.5126230000000005,-6.402282,0.299723,0.0,0.0,0.0,0.0
1022,-1.9572610000000001,4.072788,9.782524,-4.38053,-6.380977,0.361508,0.0,0.0,0.0,0.0
1025,-1.54085,4.129944,9.584156,-4.2558940000000005,-6.379912,0.404119,0.0,0.0,0.0,0.0
1027,-1.129225,4.206151,9.296052,-4.13765,-6.394825,0.441403,0.0,0.0,0.0,0.0
1029,0.0,0.0,0.0,0.0,0.0,0.0,35.469681,-59.851493999999995,-60.671127,0.0
1030,-0.8228989999999999,4.253781,8.960716,-4.033254,-6.426784,0.472296,0.0,0.0,0.0,0.0
1032,-0.530933,4.220441,8.700951,-3.940576,-6.474721,0.494666,0.0,0.0,0.0,0.0
1035,-0.310761,4.134708,8.351445,-3.856421,-6.530115,0.513841,0.0,0.0,0.0,0.0
1037,0.009923000000000001,4.120419999999999,8.053894,-3.782917,-6.602552,0.5244939999999999,0.0,0.0,0.0,0.0
1039,0.0,0.0,0.0,0.0,0.0,0.0,31.923458,-57.480033999999996,-64.882492,0.0
1040,0.330608,4.1394720000000005,7.60993,-3.720067,-6.676055,0.530885,0.0,0.0,0.0,0.0
1042,0.656079,4.125183,7.236809,-3.676391,-6.7644720000000005,0.5330159999999999,0.0,0.0,0.0,0.0
1045,0.991123,4.120419999999999,6.995935,-3.640172,-6.861412,0.528755,0.0,0.0,0.0,80.427811
1047,1.3740299999999999,4.08708,6.858967,-3.61354,-6.953024,0.522363,0.0,0.0,0.0,0.0
1049,0.0,0.0,0.0,0.0,0.0,0.0,28.569031,-55.66628299999999,-69.398712,0.0
1050,1.685142,4.010873,6.750336999999999,-3.587974,-7.038245,0.51171,0.0,0.0,0.0,0.0
1052,2.010613,3.9822949999999997,6.651153,-3.57093,-7.1117479999999995,0.49892700000000006,0.0,0.0,0.0,0.0
1055,2.288221,3.882274,6.651153,-3.561342,-7.1479669999999995,0.47655699999999995,0.0,0.0,0.0,0.0
1057,2.5179650000000002,3.848933,6.655875999999999,-3.562408,-7.1660770000000005,0.459512,0.0,0.0,0.0,0.0
1059,0.0,0.0,0.0,0.0,0.0,0.0,24.333332000000002,-52.887161,-73.065781,0.0
1060,2.766854,3.839407,6.5378,-3.573061,-7.163946000000001,0.43607700000000005,0.0,0.0,0.0,0.0
1062,2.972666,3.853697,6.4527849999999995,-3.5954309999999996,-7.153294,0.414771,0.0,0.0,0.0,0.0
1065,3.097111,3.8060669999999996,6.457509,-3.628454,-7.135184,0.398792,0.0,0.0,0.0,0.0
1067,3.288564,3.710809,6.443339,-3.6604120000000004,-7.104291,0.382814,0.0,0.0,0.0,0.0
1069,3.4082220000000003,3.629839,6.509461,-3.687044,-7.058486,0.373226,19.137165,-50.059878999999995,-75.509872,0.0
1072,3.5757440000000003,3.463135,6.703105,-3.7147410000000005,-6.997764999999999,0.36683499999999997,0.0,0.0,0.0,0.0
1074,3.704974,3.3869290000000003,6.953425,-3.741372,-6.9125440000000005,0.363639,0.0,0.0,0.0,0.0
1077,3.791128,3.24404,7.213191999999999,-3.7605470000000003,-6.809214,0.35937800000000003,0.0,0.0,0.0,0.0
1079,3.973009,3.077337,7.520189,-3.777591,-6.674989999999999,0.356182,14.272042,-47.449684000000005,-77.53038000000001,0.0
1082,4.197966,2.977315,7.9594309999999995,-3.786113,-6.524788,0.354051,0.0,0.0,0.0,0.0
1084,4.32241,2.905871,8.356166,-3.785048,-6.350085,0.346595,0.0,0.0,0.0,0.0
1087,4.4324959999999995,2.786798,8.535642,-3.777591,-6.155142,0.338072,0.0,0.0,0.0,0.0
1089,4.494718,2.682013,8.748177,-3.7658730000000005,-5.942089,0.32955,9.959111,-44.848244,-81.17514,0.0
1092,4.552154,2.6058060000000003,9.007943,-3.7498940000000003,-5.720514,0.318898,0.0,0.0,0.0,0.0
1094,4.470785,2.572466,9.215755999999999,-3.73285,-5.4765690000000005,0.306115,0.0,0.0,0.0,0.0
1097,4.446852,2.524836,9.433016,-3.7072839999999996,-5.2230360000000005,0.290136,0.0,0.0,0.0,0.0
1099,4.480357,2.415289,9.758905,-3.676391,-4.955655,0.27522199999999997,6.030101,-42.309771999999995,-83.181732,0.0
1102,4.403773999999999,2.339082,9.933658,-3.6380410000000003,-4.674426,0.2667,0.0,0.0,0.0,0.0
1104,4.312833,2.229534,10.09424,-3.5975620000000004,-4.386805000000001,0.258178,0.0,0.0,0.0,0.0
1107,4.245823000000001,2.210482,10.292607,-3.549625,-4.101314,0.24859,0.0,0.0,0.0,0.0
1109,4.169241,2.115224,10.443744,-3.4963620000000004,-3.8158230000000004,0.249656,2.321691,-39.986645,-84.43987299999999,0.0
1112,4.035222,1.948521,10.476805,-3.4356419999999996,-3.537789,0.25285100000000005,0.0,0.0,0.0,0.0
1114,4.030435,1.877077,10.472082,-3.3717260000000002,-3.260821,0.258178,0.0,0.0,0.0,0.0
1117,3.9729989999999997,1.7865810000000002,10.429575,-3.304614,-2.9955700000000003,0.263504,0.0,0.0,0.0,0.0
1119,3.9442800000000005,1.734188,10.302052,-3.241764,-2.740972,0.277352,-0.893172,-36.779827000000004,-85.979744,0.0
1122,3.882057,1.7770549999999998,10.33039,-3.1767830000000004,-2.501288,0.290136,0.0,0.0,0.0,0.0
1124,3.882056,1.7675299999999998,10.245376,-3.107541,-2.263734,0.297592,0.0,0.0,0.0,0.0
1127,3.9107730000000003,1.6865599999999998,9.980886,-3.0414939999999997,-2.042159,0.30718,0.0,0.0,0.0,0.0
1129,3.8916269999999997,1.643693,9.881701,-2.977578,-1.8323029999999998,0.317832,-3.138989,-34.036003,-86.410095,0.0
1132,3.8581220000000003,1.6103530000000001,9.815579,-2.920054,-1.637359,0.326355,0.0,0.0,0.0,0.0
1134,3.882053,1.57225,9.744735,-2.859334,-1.444547,0.332746,0.0,0.0,0.0,0.0
1137,3.853334,1.491279,9.702227,-2.8018099999999997,-1.259191,0.339138,0.0,0.0,0.0,0.0
1139,3.8724790000000002,1.4579389999999999,9.555812,-2.7485470000000003,-1.081292,0.348725,-3.907593,-32.121033000000004,-87.635452,0.0
1142,3.882051,1.419836,9.423567,-2.7027400000000004,-0.9119149999999999,0.352986,0.0,0.0,0.0,0.0
1144,3.8629050000000005,1.338866,9.286599,-2.66013,-0.752125,0.357247,0.0,0.0,0.0,0.0
1147,3.8485449999999997,1.3245770000000001,9.069339999999999,-2.6217799999999998,-0.601923,0.36257399999999995,0.0,0.0,0.0,0.0
1149,3.858118,1.296,8.771789,-2.582366,-0.468765,0.364704,-4.3523309999999995,-29.692451000000002,-88.324898,0.0
1152,3.8772620000000004,1.281711,8.663159,-2.550408,-0.351586,0.364704,0.0,0.0,0.0,0.0
1154,3.9155519999999995,1.2197930000000001,8.516746000000001,-2.526972,-0.241864,0.364704,0.0,0.0,0.0,0.0
1157,3.8868339999999995,1.1102450000000001,8.460068,-2.505667,-0.132142,0.371096,0.0,0.0,0.0,0.0
1159,3.829397,1.062616,8.464791,-2.502471,-0.032007,0.379618,-5.202569,-27.433352000000003,-88.172112,0.0
1162,3.867687,0.9816459999999999,8.644264999999999,-2.510993,0.065997,0.391336,0.0,0.0,0.0,0.0
1164,3.886832,0.9149649999999999,8.889864,-2.522711,0.15654400000000002,0.414771,0.0,0.0,0.0,0.0
1167,3.896404,0.876862,9.177969000000001,-2.537625,0.2407,0.43927299999999997,0.0,0.0,0.0,0.0
1169,3.905975,0.848284,9.52275,-2.547212,0.30035500000000004,0.4691,-5.033378,-25.062414,-88.33691400000001,0.0
1171,3.8916150000000003,0.833996,9.872254,-2.539755,0.344031,0.499993,0.0,0.0,0.0,0.0
1174,3.9059739999999996,0.753026,10.075343,-2.514189,0.368532,0.526624,0.0,0.0,0.0,0.0
1176,3.968196,0.6387149999999999,10.259542,-2.4801,0.363205,0.5532560000000001,0.0,0.0,0.0,0.0
1179,3.9394769999999997,0.6387149999999999,10.448462,-2.4300330000000003,0.329117,0.582018,-4.227865,-23.465076,-88.862442,0.0
1181,3.9203309999999996,0.71016,10.821582000000001,-2.363987,0.28118000000000004,0.6033229999999999,0.0,0.0,0.0,0.0
1184,3.858108,0.610138,11.001058,-2.283027,0.231113,0.622498,0.0,0.0,0.0,0.0
1186,3.757594,0.495828,11.076626,-2.195675,0.17358800000000002,0.635281,0.0,0.0,0.0,0.0
1189,3.6379349999999997,0.324361,11.246655,-2.108323,0.111803,0.6480640000000001,-4.143674,-21.805398999999998,-89.74237099999999,0.0
1191,3.5852839999999997,0.238629,11.355284,-2.017776,0.053214,0.665108,0.0,0.0,0.0,0.0
1194,3.5517790000000002,0.157659,11.553652,-1.927228,-0.00218,0.683218,0.0,0.0,0.0,0.0
1195,0.0,0.0,0.0,0.0,0.0,0.0,0.0,0.0,0.0,222.47380099999998
1196,3.441693,0.029058999999999998,11.766188,-1.838812,-0.042660000000000003,0.696001,0.0,0.0,0.0,0.0
1199,3.4129739999999997,0.010006999999999999,11.950386,-1.744003,-0.072487,0.718372,-4.050628,-20.348722,-89.687973,0.0
1201,3.4416910000000005,0.071926,12.14403,-1.649195,-0.08313999999999999,0.740742,0.0,0.0,0.0,0.0
1204,3.408186,0.124319,12.347121000000001,-1.553321,-0.076749,0.7609819999999999,0.0,0.0,0.0,0.0
1206,3.3411769999999996,0.13860799999999998,12.517147999999999,-1.4606430000000001,-0.053313,0.788679,0.0,0.0,0.0,0.0
1209,3.403399,0.23386700000000002,12.805254,-1.363704,-0.014962999999999999,0.814245,-3.8200220000000003,-19.079110999999997,-89.951767,0.0
1211,3.3698940000000004,0.395808,13.098082000000002,-1.259308,0.051082999999999996,0.844073,0.0,0.0,0.0,0.0
1214,3.4273290000000003,0.481542,13.315341,-1.149586,0.143761,0.8770959999999999,0.0,0.0,0.0,0.0
1216,3.5134830000000004,0.610142,13.461754999999998,-1.032407,0.255614,0.9058579999999999,0.0,0.0,0.0,0.0
1219,3.5565589999999996,0.767319,13.471201,-0.918424,0.374923,0.9335549999999999,-4.064104,-17.411236,-90.011749,0.0
1221,3.5852760000000004,0.8197120000000001,13.490093,-0.80018,0.509146,0.962317,0.0,0.0,0.0,0.0
1224,3.6139940000000004,0.857816,13.537324,-0.68087,0.658283,0.987883,0.0,0.0,0.0,0.0
1226,3.637925,0.8292379999999999,13.442862,-0.5636909999999999,0.822334,1.01345,0.0,0.0,0.0,0.0
1229,3.609206,0.805424,13.301170999999998,-0.457165,1.001298,1.0347549999999999,-4.092308999999999,-16.489338,-90.215317,0.0
1231,3.479974,0.786373,13.225603,-0.361291,1.1962409999999999,1.057125,0.0,0.0,0.0,0.0
1234,3.4033919999999998,0.724454,13.263387,-0.27607,1.399707,1.077365,0.0,0.0,0.0,0.0
1236,3.278946,0.633958,13.258663,-0.205763,1.621282,1.098671,0.0,0.0,0.0,0.0
1239,3.178432,0.57204,13.263387,-0.14291199999999998,1.855639,1.119976,-3.160327,-15.827435999999999,-90.24369,0.0
1241,3.034841,0.505359,13.395631,-0.086453,2.0899970000000003,1.144477,0.0,0.0,0.0,0.0
1244,2.876891,0.529174,13.466475,-0.026798000000000002,2.3168990000000003,1.172174,0.0,0.0,0.0,0.0
1246,2.790736,0.562515,13.575106,0.033922,2.537408,1.199871,0.0,0.0,0.0,0.0
1249,2.685436,0.653012,13.655397,0.101033,2.7440689999999996,1.2307629999999998,-1.6432200000000001,-15.565548000000001,-90.80074300000001,0.0
1251,2.565776,0.6911149999999999,13.674289000000002,0.16814500000000002,2.92836,1.259525,0.0,0.0,0.0,0.0
1254,2.5035529999999997,0.8482930000000001,13.81598,0.243779,3.0892150000000003,1.292549,0.0,0.0,0.0,0.0
1256,2.407825,0.881634,13.867932999999999,0.326869,3.229829,1.325572,0.0,0.0,0.0,0.0
1259,2.273807,0.8959229999999999,14.056854000000001,0.408894,3.350204,1.355399,0.535968,-15.737829000000001,-90.51059000000001,0.0
1261,2.130216,0.9197379999999999,14.274114,0.49837700000000007,3.4535339999999994,1.380965,0.0,0.0,0.0,0.0
1264,1.95312,0.924502,14.378020000000001,0.59212,3.544082,1.411858,0.0,0.0,0.0,0.0
1266,1.7808110000000001,0.8292430000000001,14.48665,0.682667,3.622911,1.4427510000000001,0.0,0.0,0.0,0.0
1269,1.618075,0.791139,14.562219,0.778541,3.6740440000000003,1.473643,3.140604,-15.195265,-90.943703,0.0
1271,1.421834,0.714932,14.514988,0.87761,3.707067,1.509862,0.0,0.0,0.0,0.0
1274,1.1920879999999998,0.6053850000000001,14.278835999999998,0.9777450000000001,3.713459,1.554603,0.0,0.0,0.0,0.0
1276,1.053283,0.510126,13.872654999999998,1.071488,3.6857620000000004,1.597214,0.0,0.0,0.0,0.0
1278,0.8474700000000001,0.443445,13.461751000000001,1.157775,3.6250419999999997,1.6451509999999998,0.0,0.0,0.0,0.0
1279,0.0,0.0,0.0,0.0,0.0,0.0,5.868401,-5.336874,-78.95568100000001,0.0
1281,0.641656,0.448208,13.098078,1.232343,3.53556,1.700545,0.0,0.0,0.0,0.0
1283,0.47413299999999997,0.45773400000000003,12.706067,1.296259,3.426903,1.757004,0.0,0.0,0.0,0.0
1286,0.22045599999999999,0.400579,12.332947,1.345261,3.2969410000000003,1.811332,0.0,0.0,0.0,0.0
1288,0.00507,0.410105,11.945659,1.385741,3.160587,1.870987,0.0,0.0,0.0,0.0
1289,0.0,0.0,0.0,0.0,0.0,0.0,8.596675999999999,-7.945377000000001,-77.991714,0.0
1291,-0.157667,0.310083,11.49697,1.402785,3.019972,1.9349029999999998,0.0,0.0,0.0,0.0
1293,-0.334762,0.257691,11.223033000000001,1.402785,2.883619,2.0009490000000003,0.0,0.0,0.0,0.0
1296,-0.454421,0.23864000000000002,11.06245,1.390002,2.752591,2.070191,0.0,0.0,0.0,0.0
1298,-0.5070720000000001,0.286269,11.001051,1.365501,2.630086,2.1351720000000003,0.0,0.0,0.0,0.0
1299,0.0,0.0,0.0,0.0,0.0,0.0,10.422918,-9.185469,-77.89263199999999,0.0
1301,-0.463996,0.291033,10.949098,1.336739,2.522494,2.200153,0.0,0.0,0.0,0.0
1303,-0.387415,0.3339,11.029389,1.307977,2.42662,2.260873,0.0,0.0,0.0,0.0
1306,-0.291688,0.395818,11.12385,1.286672,2.344595,2.317332,0.0,0.0,0.0,0.0
1308,-0.186389,0.352952,11.123849,1.2664309999999999,2.287071,2.373791,0.0,0.0,0.0,0.0
1309,0.0,0.0,0.0,0.0,0.0,0.0,12.176933,-9.860767,-78.277374,0.0
1311,-0.06194500000000001,0.305323,11.114403,1.257909,2.234873,2.4281200000000003,0.0,0.0,0.0,0.0
1313,0.043354000000000004,0.391056,10.939651,1.245126,2.1890669999999997,2.4781869999999997,0.0,0.0,0.0,0.0
1316,0.124721,0.467264,10.878250999999999,1.2248860000000001,2.148587,2.527189,0.0,0.0,0.0,0.0
1318,0.23959299999999997,0.467264,10.807405000000001,1.2121030000000002,2.113433,2.567669,0.0,0.0,0.0,0.0
1319,0.0,0.0,0.0,0.0,0.0,0.0,13.534578,-10.696703,-78.283699,0.0
1321,0.46455100000000005,0.5196569999999999,10.760176,1.193994,2.091062,2.602823,0.0,0.0,0.0,0.0
1323,0.598568,0.614916,10.774344000000001,1.176949,2.0804099999999996,2.629454,0.0,0.0,0.0,0.0
1326,0.742158,0.624442,10.741283000000001,1.162036,2.0750830000000002,2.653955,0.0,0.0,0.0,0.0
1328,0.837884,0.6768350000000001,10.826297,1.143926,2.078279,2.67313,0.0,0.0,0.0,0.0
1329,0.0,0.0,0.0,0.0,0.0,0.0,14.266929999999999,-12.435194000000001,-76.601173,0.0
1331,0.900106,0.729228,10.892419,1.125817,2.091062,2.682718,0.0,0.0,0.0,0.0
1333,1.0054049999999999,0.7197020000000001,10.944372999999999,1.111968,2.113433,2.683783,0.0,0.0,0.0,0.0
1336,1.053267,0.729228,11.086063000000001,1.104511,2.147521,2.685913,0.0,0.0,0.0,0.0
1338,1.129848,0.729228,11.171078999999999,1.0959889999999999,2.188001,2.680587,0.0,0.0,0.0,0.0
1339,0.0,0.0,0.0,0.0,0.0,0.0,15.309565,-13.987729999999999,-76.20908399999999,0.0
1341,1.158566,0.753043,11.270261999999999,1.0959889999999999,2.235938,2.6720650000000004,0.0,0.0,0.0,0.0
1343,1.211215,0.7244659999999999,11.364722,1.10025,2.279614,2.661412,0.0,0.0,0.0,0.0
1344,0.0,0.0,0.0,0.0,0.0,0.0,0.0,0.0,0.0,454.953186
1346,1.268651,0.7482810000000001,11.534751,1.110903,2.3296810000000003,2.647564,0.0,0.0,0.0,0.0
1348,1.259077,0.729229,11.690611,1.1226209999999999,2.3904009999999998,2.63265,0.0,0.0,0.0,0.0
1349,0.0,0.0,0.0,0.0,0.0,0.0,16.404268,-14.437744,-76.19747199999999,0.0
1351,1.187281,0.705415,11.851192999999999,1.136469,2.455382,2.618802,0.0,0.0,0.0,0.0
1353,1.177708,0.610156,12.068453,1.1588399999999999,2.52782,2.604953,0.0,0.0,0.0,0.0
1356,1.0532620000000001,0.595867,12.290435,1.185471,2.605584,2.5911049999999998,0.0,0.0,0.0,0.0
1358,1.010184,0.543475,12.469911,1.217429,2.692936,2.583648,0.0,0.0,0.0,0.0
1359,0.0,0.0,0.0,0.0,0.0,0.0,17.596359,-16.377398,-75.343864,0.0
1361,0.986252,0.576816,12.639939,1.2536479999999999,2.787745,2.580452,0.0,0.0,0.0,0.0
1363,0.9240290000000001,0.529187,12.904428,1.3005200000000001,2.881488,2.576191,0.0,0.0,0.0,0.0
1366,0.89531,0.47679499999999997,13.102797,1.352718,2.9731,2.576191,0.0,0.0,0.0,0.0
1368,0.8761639999999999,0.519662,13.154748999999999,1.410242,3.067909,2.582583,0.0,0.0,0.0,0.0
1369,0.0,0.0,0.0,0.0,0.0,0.0,19.370537,-18.720013,-74.864304,0.0
1371,0.8330860000000001,0.47679499999999997,13.301164000000002,1.4762879999999998,3.154195,2.5889740000000003,0.0,0.0,0.0,0.0
1373,0.804367,0.481558,13.4523,1.556183,3.228764,2.597497,0.0,0.0,0.0,0.0
1376,0.7421439999999999,0.46250699999999995,13.565654,1.6360780000000001,3.303332,2.608149,0.0,0.0,0.0,0.0
1378,0.617699,0.472033,13.645944,1.726625,3.3672480000000005,2.625193,0.0,0.0,0.0,0.0
1379,0.0,0.0,0.0,0.0,0.0,0.0,21.154438,-19.789516,-73.99884,0.0
1380,0.53633,0.452982,13.754574,1.819303,3.426903,2.641172,0.0,0.0,0.0,0.0
1383,0.373593,0.400589,13.815973000000001,1.9194380000000002,3.486557,2.658216,0.0,0.0,0.0,0.0
1385,0.22043000000000001,0.443456,13.891541,2.019573,3.540886,2.679522,0.0,0.0,0.0,0.0
1388,0.043334,0.376775,13.853757,2.1175770000000003,3.5866919999999998,2.709349,0.0,0.0,0.0,0.0
1389,0.0,0.0,0.0,0.0,0.0,0.0,22.715785999999998,-21.383211,-73.530304,0.0
1390,-0.157693,0.343435,13.674281,2.213451,3.6165190000000003,2.744503,0.0,0.0,0.0,0.0
1393,-0.258207,0.348198,13.433407999999998,2.3018680000000002,3.630368,2.786048,0.0,0.0,0.0,0.0
1395,-0.387439,0.31961999999999996,13.083902,2.379632,3.6175839999999995,2.831854,0.0,0.0,0.0,0.0
1398,-0.588467,0.33391,12.691889999999999,2.45207,3.5824309999999997,2.885118,24.204021,-23.888216,-72.997185,0.0
1400,-0.70334,0.357724,12.328218,2.510659,3.5206459999999997,2.939446,0.0,0.0,0.0,0.0
1403,-0.7894939999999999,0.348199,12.02122,2.559661,3.446077,2.991644,0.0,0.0,0.0,0.0
1405,-0.8947950000000001,0.314859,11.72367,2.594815,3.3608559999999996,3.042777,0.0,0.0,0.0,0.0
1408,-0.9043680000000001,0.286281,11.397779,2.627838,3.255395,3.0907139999999997,25.408023999999997,-26.027918,-71.363861,0.0
1410,-0.9283,0.30057,11.185244,2.652339,3.146738,3.137585,0.0,0.0,0.0,0.0
1413,-0.9187290000000001,0.352963,11.019936999999999,2.665123,3.049799,3.1823259999999998,0.0,0.0,0.0,0.0
1415,-0.832575,0.38154099999999996,10.939645,2.673645,2.95286,3.216415,0.0,0.0,0.0,0.0
1418,-0.741635,0.38154099999999996,10.831016,2.6725790000000003,2.852725,3.240916,26.602885999999998,-28.176458,-69.266708,0.0
1420,-0.607618,0.44346,10.783785,2.673645,2.762178,3.259025,0.0,0.0,0.0,0.0
1423,-0.478387,0.567297,10.793231,2.6747099999999997,2.681218,3.264352,0.0,0.0,0.0,0.0
1425,-0.37308800000000003,0.710186,10.897138,2.6715139999999997,2.6151720000000003,3.264352,0.0,0.0,0.0,0.0
1428,-0.320439,0.729238,10.996321,2.673645,2.572561,3.2579599999999997,28.039059,-31.783995,-68.353111,0.0
1430,-0.22471300000000002,0.843549,11.123842,2.677906,2.553386,3.2473080000000003,0.0,0.0,0.0,0.0
1433,-0.128986,0.9340450000000001,11.241919000000001,2.681101,2.5651040000000003,3.231328,0.0,0.0,0.0,0.0
1435,-0.009328,1.019779,11.265532,2.680036,2.591736,3.206827,0.0,0.0,0.0,0.0
1438,0.014603,1.081698,11.303317999999999,2.6821669999999997,2.62902,3.180196,28.829777000000004,-34.626762,-66.61496700000001,0.0
1440,0.11511500000000001,1.2198229999999999,11.289147999999999,2.688558,2.6695,3.155695,0.0,0.0,0.0,0.0
1443,0.143833,1.410342,11.32221,2.6896240000000002,2.717437,3.130128,0.0,0.0,0.0,0.0
1445,0.143832,1.548468,11.251363000000001,2.693885,2.7749610000000002,3.099236,0.0,0.0,0.0,0.0
1448,0.057677,1.7246970000000001,11.312762,2.698146,2.8367459999999998,3.0736689999999998,28.873741,-36.694176,-64.191238,0.0
1450,0.028957999999999998,1.877112,11.440285000000001,2.705602,2.903858,3.048103,0.0,0.0,0.0,0.0
1453,-0.023691999999999998,1.977134,11.57253,2.710929,2.977361,3.019341,0.0,0.0,0.0,0.0
1455,-0.11942,2.067631,11.808681,2.718386,3.061517,2.99697,0.0,0.0,0.0,0.0
1458,-0.229506,2.091446,12.035387,2.731169,3.157391,2.978861,29.417828000000004,-39.872864,-63.011295,0.0
1460,-0.339593,2.177179,12.342383,2.7482130000000002,3.262851,2.966078,0.0,0.0,0.0,0.0
1463,-0.420962,2.205757,12.587978999999999,2.773779,3.376835,2.959686,0.0,0.0,0.0,0.0
1465,-0.507116,2.167654,12.753285,2.806803,3.506797,2.962882,0.0,0.0,0.0,0.0
1468,-0.6219899999999999,2.124788,12.876085,2.848348,3.6378239999999997,2.971404,29.934791999999998,-42.866240999999995,-61.838024,0.0
1470,-0.698572,2.0962099999999997,12.942207000000002,2.89735,3.758199,2.989514,0.0,0.0,0.0,0.0
1473,-0.770368,2.072396,12.904423,2.950613,3.86153,3.0150799999999998,0.0,0.0,0.0,0.0
1475,-0.8278049999999999,2.048581,12.937485,3.014529,3.9563379999999997,3.05343,0.0,0.0,0.0,0.0
1478,-0.890028,2.039055,12.729671000000002,3.078445,4.022385,3.0960400000000003,29.949677,-45.487854,-59.06945,0.0
1480,-0.890028,2.067634,12.578533,3.141295,4.070322,3.147173,0.0,0.0,0.0,0.0
1483,-0.813448,2.153367,12.399057,3.2020150000000003,4.089496,3.1951099999999997,0.0,0.0,0.0,0.0
1485,-0.775157,2.215286,12.21486,3.266996,4.084169999999999,3.239851,0.0,0.0,0.0,0.0
1487,-0.74644,2.3343599999999998,12.082614,3.3277160000000006,4.060734,3.281396,0.0,0.0,0.0,0.0
1488,0.0,0.0,0.0,0.0,0.0,0.0,30.775013,-48.194199,-55.18905600000001,0.0
1490,-0.746441,2.3867529999999997,11.88897,3.388436,4.0170580000000005,3.326137,0.0,0.0,0.0,0.0
1492,-0.6842189999999999,2.486775,11.586697000000001,3.452352,3.9637949999999997,3.3666169999999997,0.0,0.0,0.0,0.0
1494,0.0,0.0,0.0,0.0,0.0,0.0,0.0,0.0,0.0,521.198303
1495,-0.593279,2.543931,11.364714999999999,3.5173330000000003,3.891357,3.4007050000000003,0.0,0.0,0.0,0.0
1497,-0.5214840000000001,2.59156,11.100223,3.5695309999999996,3.801875,3.4252059999999998,0.0,0.0,0.0,0.0
1498,0.0,0.0,0.0,0.0,0.0,0.0,30.927177,-51.214721999999995,-51.340519,0.0
1500,-0.464049,2.596323,10.897133,3.624925,3.702806,3.4465120000000002,0.0,0.0,0.0,0.0
1502,-0.387468,2.739213,10.571244,3.671796,3.60054,3.4560989999999996,0.0,0.0,0.0,0.0
1505,-0.21037399999999998,2.820183,10.363431,3.708015,3.495079,3.4592949999999996,0.0,0.0,0.0,0.0
1507,-0.10986099999999999,2.810657,10.193401,3.7378430000000002,3.393879,3.4550339999999995,0.0,0.0,0.0,0.0
1508,0.0,0.0,0.0,0.0,0.0,0.0,30.270573,-53.622841,-47.557148,0.0
1510,0.048088,2.9202049999999997,9.971418,3.761278,3.29694,3.44012,0.0,0.0,0.0,0.0
1512,0.16296,3.063095,9.739989999999999,3.7740620000000002,3.200001,3.418815,0.0,0.0,0.0,0.0
1515,0.32569499999999996,3.148828,9.536899,3.7793879999999995,3.110519,3.391118,0.0,0.0,0.0,0.0
1517,0.46928500000000006,3.358398,9.338532,3.776192,3.023167,3.3548989999999996,0.0,0.0,0.0,0.0
1518,0.0,0.0,0.0,0.0,0.0,0.0,29.727451000000002,-56.02976999999999,-44.253242,0.0
1520,0.584156,3.548916,9.149611,3.764474,2.949664,3.313354,0.0,0.0,0.0,0.0
1522,0.665523,3.658464,8.993751,3.7474300000000005,2.885748,3.260091,0.0,0.0,0.0,0.0
1525,0.713386,3.9109019999999997,8.908736,3.72506,2.8271580000000003,3.200436,0.0,0.0,0.0,0.0
1527,0.718172,4.058553,8.88512,3.698428,2.792005,3.137585,0.0,0.0,0.0,0.0
1528,0.0,0.0,0.0,0.0,0.0,0.0,28.621593,-58.752646999999996,-41.306038,0.0
1530,0.689453,4.253835,8.875674,3.6686010000000002,2.764308,3.076865,0.0,0.0,0.0,0.0
1532,0.622444,4.43959,8.922903999999999,3.64623,2.747264,3.0182759999999997,0.0,0.0,0.0,0.0
1535,0.5793659999999999,4.64916,8.951242,3.616403,2.741937,2.95436,0.0,0.0,0.0,0.0
1537,0.579365,4.801575,8.998472999999999,3.5844449999999997,2.7461990000000003,2.890444,0.0,0.0,0.0,0.0
1538,0.0,0.0,0.0,0.0,0.0,0.0,27.532646000000003,-60.93309,-38.085246999999995,0.0
1540,0.565006,4.925413,9.111825,3.554617,2.75259,2.8233330000000003,0.0,0.0,0.0,0.0
1542,0.593723,5.096879,9.215732000000001,3.5258550000000004,2.766438,2.754091,0.0,0.0,0.0,0.0
1545,0.5985090000000001,5.220716,9.300746,3.499223,2.782418,2.680587,0.0,0.0,0.0,0.0
1547,0.598508,5.220716,9.395206,3.4832449999999997,2.795201,2.608149,0.0,0.0,0.0,0.0
1548,0.0,0.0,0.0,0.0,0.0,0.0,26.249126,-62.346939,-35.803139,0.0
1550,0.517139,5.301686,9.456605999999999,3.4800489999999997,2.81118,2.539973,0.0,0.0,0.0,0.0
1552,0.411839,5.2445319999999995,9.418821000000001,3.481114,2.812245,2.4824479999999998,0.0,0.0,0.0,0.0
1555,0.287393,5.2540569999999995,9.489666999999999,3.492832,2.820767,2.423859,0.0,0.0,0.0,0.0
1557,0.186879,5.215954,9.598296000000001,3.516268,2.823963,2.3705950000000002,0.0,0.0,0.0,0.0
1558,0.0,0.0,0.0,0.0,0.0,0.0,25.033707,-63.591965,-33.079498,0.0
1560,0.01457,5.177851,9.612466,3.549291,2.823963,2.3237240000000003,0.0,0.0,0.0,0.0
1562,-0.15773900000000002,5.044487999999999,9.669143,3.589771,2.825028,2.280048,0.0,0.0,0.0,0.0
1565,-0.24868,5.058778,9.645526,3.6377080000000004,2.817571,2.2406330000000003,0.0,0.0,0.0,0.0
1567,-0.272613,5.077829,9.532173,3.6867099999999997,2.801592,2.20548,0.0,0.0,0.0,0.0
1568,0.0,0.0,0.0,0.0,0.0,0.0,24.663033,-65.837692,-29.349693,0.0
1570,-0.286972,5.044489,9.475497,3.7378430000000002,2.776026,2.169261,0.0,0.0,0.0,0.0
1572,-0.26304099999999997,5.020675,9.305468,3.797497,2.748329,2.128781,0.0,0.0,0.0,0.0
1575,-0.15774200000000002,5.011149,9.097653999999999,3.8571519999999997,2.713175,2.089366,0.0,0.0,0.0,0.0
1577,-0.105093,5.015912,8.880396000000001,3.915742,2.665238,2.04569,0.0,0.0,0.0,0.0
1578,0.0,0.0,0.0,0.0,0.0,0.0,24.170021,-67.88163,-26.074749,0.0
1580,-0.057229999999999996,5.034965000000001,8.587567,3.975396,2.621562,1.998819,0.0,0.0,0.0,0.0
1582,0.024137,5.058779,8.370307,4.032921,2.5725599999999997,1.954077,0.0,0.0,0.0,0.0
1585,0.043282,5.1254610000000005,8.053864,4.086183999999999,2.52995,1.9093360000000001,0.0,0.0,0.0,0.0
1587,0.11029000000000001,5.134987000000001,7.746867,4.130925,2.487339,1.862465,0.0,0.0,0.0,0.0
1588,0.0,0.0,0.0,0.0,0.0,0.0,22.649319000000002,-68.570122,-22.566784,0.0
1589,0.191657,5.282639,7.430424,4.171405,2.454316,1.814528,0.0,0.0,0.0,0.0
1592,0.225161,5.377898,7.099811999999999,4.198037,2.424489,1.764461,0.0,0.0,0.0,0.0
1594,0.349605,5.511261,6.825875,4.218277,2.393596,1.712263,0.0,0.0,0.0,0.0
1597,0.407041,5.658914,6.433864,4.22893,2.361638,1.656869,0.0,0.0,0.0,0.0
1598,0.0,0.0,0.0,0.0,0.0,0.0,22.239624,-70.43049599999999,-19.623358,0.0
1599,0.517126,5.777987,6.018237,4.232125,2.328615,1.596149,0.0,0.0,0.0,0.0
1602,0.521912,5.8922989999999995,5.6829019999999995,4.225733999999999,2.292396,1.536494,0.0,0.0,0.0,0.0
1604,0.47404799999999997,5.949454,5.3475660000000005,4.21082,2.260438,1.4725780000000002,0.0,0.0,0.0,0.0
1607,0.536269,6.054239,5.0264,4.190580000000001,2.227415,1.410793,0.0,0.0,0.0,0.0
1608,0.0,0.0,0.0,0.0,0.0,0.0,21.580849,-71.365463,-16.233795,0.0
1609,0.5602,6.154262,4.700511,4.157557,2.1922610000000002,1.3522040000000002,0.0,0.0,0.0,0.0
1612,0.531482,6.13521,4.322668,4.122403,2.154977,1.297875,0.0,0.0,0.0,0.0
1614,0.488404,6.1733139999999995,3.9826099999999998,4.077662,2.1155619999999997,1.243547,0.0,0.0,0.0,0.0
1617,0.469121,6.208611,3.717103,4.025453,2.067557,1.1881629999999999,0.0,0.0,0.0,0.0
1618,0.0,0.0,0.0,0.0,0.0,0.0,20.837667,-71.74740600000001,-12.709614,0.0
1619,0.512192,6.3133989999999995,3.3487050000000003,3.967774,2.024788,1.131725,0.0,0.0,0.0,0.0
1622,0.53133,6.327691000000001,2.970861,3.8974660000000005,1.968329,1.071005,0.0,0.0,0.0,0.0
1624,0.5696140000000001,6.461056,2.644971,3.820767,1.907609,1.008155,0.0,0.0,0.0,0.0
1627,0.603112,6.603947,2.38048,3.743003,1.8447580000000001,0.934652,0.0,0.0,0.0,0.0
1628,0.0,0.0,0.0,0.0,0.0,0.0,19.959970000000002,-71.939339,-9.021855,0.0
1629,0.612678,6.594424000000001,2.1396040000000003,3.660978,1.764863,0.8622139999999999,0.0,0.0,0.0,0.0
1632,0.560021,6.6277669999999995,1.875113,3.5672349999999997,1.688164,0.790841,0.0,0.0,0.0,0.0
1634,0.5408689999999999,6.761132000000001,1.6106209999999999,3.4692300000000005,1.602943,0.723729,0.0,0.0,0.0,0.0
1637,0.5456489999999999,6.851630999999999,1.539775,3.364835,1.5123950000000002,0.658748,0.0,0.0,0.0,0.0
1638,0.0,0.0,0.0,0.0,0.0,0.0,19.166679000000002,-72.684288,-5.468711,0.0
1639,0.5360689999999999,6.956419,1.4075280000000001,3.256178,1.4175870000000002,0.591637,0.0,0.0,0.0,0.0
1642,0.502558,7.051680999999999,1.327235,3.147521,1.317452,0.518134,0.0,0.0,0.0,0.0
1644,0.545629,7.018342999999999,1.209158,3.0420599999999998,1.222643,0.445696,0.0,0.0,0.0,0.0
1646,0.0,0.0,0.0,0.0,0.0,0.0,0.0,0.0,0.0,367.17929100000003
1647,0.622203,7.070736999999999,1.119419,2.939794,1.121443,0.36686599999999997,0.0,0.0,0.0,0.0
1648,0.0,0.0,0.0,0.0,0.0,0.0,18.611442999999998,-72.678474,-3.689836,0.0
1649,0.665274,7.123133,1.086357,2.836464,1.00959,0.286972,0.0,0.0,0.0,0.0
1652,0.780139,7.185053999999999,1.1477549999999999,2.735264,0.901999,0.21027300000000002,0.0,0.0,0.0,0.0
1654,0.856714,7.256500999999999,1.2469370000000002,2.635129,0.806125,0.128247,0.0,0.0,0.0,0.0
1657,0.842348,7.327947999999999,1.407519,2.547777,0.717708,0.044091000000000005,0.0,0.0,0.0,0.0
1658,0.0,0.0,0.0,0.0,0.0,0.0,18.279851999999998,-72.885056,-1.317122,0.0
1659,0.8614870000000001,7.380342999999999,1.634223,2.465752,0.64527,-0.042194999999999996,0.0,0.0,0.0,0.0
1662,0.909344,7.504183,1.931772,2.3965099999999997,0.5792229999999999,-0.12848099999999998,0.0,0.0,0.0,0.0
1664,0.880619,7.57563,2.106523,2.334725,0.5185029999999999,-0.214768,0.0,0.0,0.0,0.0
1667,0.784885,7.570869,2.285996,2.284657,0.471632,-0.28933600000000004,0.0,0.0,0.0,0.0
1668,0.0,0.0,0.0,0.0,0.0,0.0,18.501265,-74.04881999999999,1.026385,0.0
1669,0.760947,7.5375309999999995,2.4796400000000003,2.250569,0.43434700000000004,-0.361774,0.0,0.0,0.0,0.0
1672,0.6795720000000001,7.5422970000000005,2.635498,2.225003,0.40025900000000003,-0.431016,0.0,0.0,0.0,0.0
1674,0.612556,7.4708559999999995,2.7488490000000003,2.205828,0.374692,-0.49173599999999995,0.0,0.0,0.0,0.0
1677,0.4546,7.385125,2.687449,2.185587,0.365105,-0.5492600000000001,0.0,0.0,0.0,0.0
1678,0.0,0.0,0.0,0.0,0.0,0.0,18.559956,-74.100655,3.329903,0.0
1679,0.334934,7.380364999999999,2.5457560000000004,2.169609,0.353387,-0.6003930000000001,0.0,0.0,0.0,0.0
1682,0.22005500000000003,7.332738000000001,2.371003,2.152564,0.34806,-0.6483300000000001,0.0,0.0,0.0,0.0
1684,0.086031,7.34703,2.13485,2.1259330000000003,0.335277,-0.6877439999999999,0.0,0.0,0.0,0.0
1687,-0.014488999999999998,7.404186999999999,1.775898,2.100366,0.310776,-0.7207680000000001,0.0,0.0,0.0,0.0
1688,0.0,0.0,0.0,0.0,0.0,0.0,19.444595,-74.010612,4.574033999999999,0.0
1689,-0.191591,7.528027000000001,1.3555469999999998,2.069474,0.275622,-0.743138,0.0,0.0,0.0,0.0
1692,-0.35912,7.5137410000000004,1.02021,2.0279279999999997,0.22449000000000002,-0.762313,0.0,0.0,0.0,0.0
1694,-0.473999,7.618529,0.656536,1.977861,0.158443,-0.777227,0.0,0.0,0.0,0.0
1696,-0.5218689999999999,7.675687,0.24563000000000001,1.920337,0.07748300000000001,-0.79001,0.0,0.0,0.0,0.0
1698,0.0,0.0,0.0,0.0,0.0,0.0,20.056076,-72.806931,6.103029,0.0
1699,-0.6271760000000001,7.766186,-0.103875,1.860682,-0.011999,-0.797467,0.0,0.0,0.0,0.0
1701,-0.6367550000000001,7.766189,-0.382535,1.7914400000000001,-0.10041599999999999,-0.801728,0.0,0.0,0.0,0.0
1704,-0.655907,7.799532000000001,-0.618688,1.707284,-0.20161600000000002,-0.81238,0.0,0.0,0.0,0.0
1706,-0.6511279999999999,7.875742,-0.8453950000000001,1.614606,-0.30494699999999997,-0.819837,0.0,0.0,0.0,0.0
1708,0.0,0.0,0.0,0.0,0.0,0.0,20.426733,-72.145111,8.162747999999999,0.0
1709,-0.636775,7.918611,-1.095717,1.5155370000000001,-0.40934299999999996,-0.833685,0.0,0.0,0.0,0.0
1711,-0.603278,8.032925,-1.223241,1.40901,-0.5137390000000001,-0.848599,0.0,0.0,0.0,0.0
1714,-0.541062,8.051979,-1.2799180000000001,1.297158,-0.612809,-0.87097,0.0,0.0,0.0,0.0
1716,-0.43576899999999996,8.066271,-1.336596,1.182109,-0.7161390000000001,-0.892275,0.0,0.0,0.0,0.0
1718,0.0,0.0,0.0,0.0,0.0,0.0,21.046473000000002,-72.408699,9.776327,0.0
1719,-0.33526300000000003,8.199636,-1.4546729999999999,1.06493,-0.81947,-0.9274290000000001,0.0,0.0,0.0,0.0
1721,-0.201252,8.294897,-1.431059,0.9434899999999999,-0.918539,-0.9625819999999999,0.0,0.0,0.0,0.0
1724,-0.02895,8.318714,-1.530245,0.827376,-1.024001,-1.0041280000000001,0.0,0.0,0.0,0.0
1726,0.11463399999999999,8.356821,-1.440508,0.709132,-1.132658,-1.048869,0.0,0.0,0.0,0.0
1728,0.0,0.0,0.0,0.0,0.0,0.0,21.991444,-72.68343399999999,10.724566000000001,0.0
1729,0.358731,8.394928,-1.360218,0.5951489999999999,-1.239184,-1.09574,0.0,0.0,0.0,0.0
1731,0.564537,8.466375,-1.355497,0.486492,-1.3521020000000001,-1.145808,0.0,0.0,0.0,0.0
1734,0.76077,8.490192,-1.402728,0.37357399999999996,-1.463955,-1.2065270000000001,0.0,0.0,0.0,0.0
1736,1.033585,8.490194,-1.40273,0.264917,-1.587525,-1.273639,0.0,0.0,0.0,0.0
1738,0.0,0.0,0.0,0.0,0.0,0.0,23.242565,-72.03855899999999,10.340071,0.0
1739,1.239392,8.547353999999999,-1.4169,0.151999,-1.727075,-1.3514030000000001,0.0,0.0,0.0,0.0
1741,1.426052,8.542593,-1.5066389999999998,0.03482,-1.876212,-1.43769,0.0,0.0,0.0,0.0
1744,1.732372,8.5807,-1.506641,-0.079163,-2.041328,-1.5388899999999999,0.0,0.0,0.0,0.0
1746,1.8855279999999999,8.518784,-1.483027,-0.19634200000000002,-2.218162,-1.645416,0.0,0.0,0.0,0.0
1748,0.0,0.0,0.0,0.0,0.0,0.0,24.652279,-71.771973,9.953272,0.0
1749,2.158344,8.514023,-1.553874,-0.317782,-2.4024520000000003,-1.757269,0.0,0.0,0.0,0.0
1751,2.359363,8.499737,-1.610551,-0.440287,-2.605918,-1.8691209999999998,0.0,0.0,0.0,0.0
1754,2.440725,8.414007000000002,-1.539707,-0.562793,-2.8211009999999996,-1.9863,0.0,0.0,0.0,0.0
1756,2.584308,8.414009,-1.3838489999999999,-0.685298,-3.041611,-2.10561,0.0,0.0,0.0,0.0
1758,0.0,0.0,0.0,0.0,0.0,0.0,26.146397,-72.058403,9.431855,0.0
1759,2.684815,8.404486,-1.105191,-0.803542,-3.266382,-2.22918,0.0,0.0,0.0,0.0
1761,2.646517,8.475933,-0.765135,-0.9153950000000001,-3.463455,-2.351686,0.0,0.0,0.0,0.0
1764,2.498133,8.494987,-0.330617,-1.01766,-3.6413550000000003,-2.466734,0.0,0.0,0.0,0.0
1766,2.325818,8.399731,-0.004729,-1.1114030000000001,-3.789426,-2.5785869999999997,0.0,0.0,0.0,0.0
1768,0.0,0.0,0.0,0.0,0.0,0.0,27.99786,-71.79881999999999,7.745645,0.0
1769,2.148716,8.423548,0.188913,-1.198755,-3.9129970000000003,-2.6840479999999998,0.0,0.0,0.0,0.0
1771,1.9859740000000001,8.356871,0.302265,-1.277585,-4.02698,-2.782052,0.0,0.0,0.0,0.0
1774,1.650923,8.218746000000001,0.410893,-1.3585450000000001,-4.128181,-2.870469,0.0,0.0,0.0,0.0
1776,1.445103,8.166357000000001,0.46756800000000004,-1.432048,-4.226185,-2.951429,0.0,0.0,0.0,0.0
1778,0.0,0.0,0.0,0.0,0.0,0.0,30.518368,-70.49140899999999,6.048993,0.0
1779,1.272788,8.066338,0.580919,-1.503421,-4.320993,-3.0281279999999997,0.0,0.0,0.0,0.0
1781,0.971241,7.885348,0.637594,-1.571597,-4.408345,-3.095239,0.0,0.0,0.0,0.0
1784,0.731917,7.713885,0.750946,-1.638709,-4.497828,-3.151698,0.0,0.0,0.0,0.0
1786,0.521311,7.623392,0.854851,-1.704755,-4.5745260000000005,-3.199635,0.0,0.0,0.0,0.0
1788,0.0,0.0,0.0,0.0,0.0,0.0,33.313988,-69.558136,3.715964,0.0
1789,0.248482,7.432875999999999,1.043771,-1.766541,-4.6384419999999995,-3.236919,0.0,0.0,0.0,0.0
1791,-0.09135499999999999,7.309042,1.0484930000000001,-1.832587,-4.6863790000000005,-3.265682,0.0,0.0,0.0,0.0
1794,-0.440766,7.180445,1.161844,-1.907156,-4.721533,-3.2891169999999996,0.0,0.0,0.0,0.0
1795,0.0,0.0,0.0,0.0,0.0,0.0,0.0,0.0,0.0,95.361328
1796,-0.77103,7.037559,1.227965,-1.98492,-4.744969,-3.2997699999999996,0.0,0.0,0.0,0.0
1798,0.0,0.0,0.0,0.0,0.0,0.0,35.568794,-67.655914,0.793702,0.0
1799,-1.063004,6.985169,1.270471,-2.0648150000000003,-4.762013,-3.310423,0.0,0.0,0.0,0.0
1801,-1.417201,6.894675,1.379099,-2.14471,-4.7684050000000004,-3.3114879999999998,0.0,0.0,0.0,0.0
1803,-1.718747,6.799419,1.49245,-2.2246040000000002,-4.763078,-3.3040309999999997,0.0,0.0,0.0,0.0
1806,-1.9197810000000002,6.670822,1.5680180000000001,-2.30876,-4.743904,-3.2923129999999996,0.0,0.0,0.0,0.0
1808,-2.173464,6.623195,1.6530310000000001,-2.3982419999999998,-4.716207,-3.276334,37.723366,-66.479691,-2.070634,0.0
1811,-2.3457790000000003,6.613672,1.653029,-2.4962459999999997,-4.678923,-3.257159,0.0,0.0,0.0,0.0
1813,-2.494163,6.485075,1.7097040000000001,-2.6006419999999997,-4.642704,-3.233723,0.0,0.0,0.0,0.0
1816,-2.6951959999999997,6.389819,1.756933,-2.7029080000000003,-4.6118120000000005,-3.213483,0.0,0.0,0.0,0.0
1818,-2.838794,6.304088,1.775824,-2.815825,-4.595832,-3.1847209999999997,40.021591,-65.484634,-5.56238,0.0
1821,-2.9536729999999998,6.23741,1.8230529999999998,-2.931939,-4.595832,-3.1570240000000003,0.0,0.0,0.0,0.0
1823,-3.006329,6.127864,1.813605,-3.054445,-4.612877,-3.1271970000000002,0.0,0.0,0.0,0.0
1826,-3.00155,6.037371,1.832496,-3.1801459999999997,-4.650161,-3.095239,0.0,0.0,0.0,0.0
1828,-3.097283,5.827804,1.8655560000000002,-3.300521,-4.711946,-3.062216,41.854259000000006,-64.082481,-9.314143,0.0
1831,-3.020709,5.661103,1.922231,-3.41983,-4.797168,-3.0302580000000003,0.0,0.0,0.0,0.0
1833,-2.91063,5.508691000000001,2.021413,-3.54127,-4.900498000000001,-2.999365,0.0,0.0,0.0,0.0
1836,-2.757473,5.294361,2.172549,-3.6520580000000002,-5.029396,-2.972734,0.0,0.0,0.0,0.0
1838,-2.551666,5.04669,2.356745,-3.7596489999999996,-5.168945,-2.9450369999999997,43.75943,-63.033287,-13.980238,0.0
1841,-2.365006,4.884752,2.710971,-3.8587190000000002,-5.3212779999999995,-2.918405,0.0,0.0,0.0,0.0
1843,-2.187918,4.775207,3.1265970000000003,-3.952462,-5.485329,-2.901361,0.0,0.0,0.0,0.0
1846,-1.986898,4.656136,3.561114,-4.035553,-5.646183000000001,-2.888578,0.0,0.0,0.0,0.0
1848,-1.781092,4.54659,3.995631,-4.109056,-5.802777,-2.8768599999999998,45.421603999999995,-61.052811,-18.509411,0.0
1851,-1.5417809999999998,4.427519,4.519886,-4.1761669999999995,-5.95298,-2.8694029999999997,0.0,0.0,0.0,0.0
1853,-1.331189,4.308448,5.025249,-4.233692,-6.09679,-2.8694029999999997,0.0,0.0,0.0,0.0
1856,-1.125383,4.260821,5.3653059999999995,-4.280563,-6.226751999999999,-2.8736639999999998,0.0,0.0,0.0,0.0
1858,-0.886072,4.132225,5.752594,-4.322108,-6.346062,-2.875795,45.786465,-58.601128,-23.328152,0.0
1861,-0.732916,4.022679,5.9887440000000005,-4.364719,-6.461111,-2.885382,0.0,0.0,0.0,0.0
1863,-0.522323,3.903608,6.1871089999999995,-4.406264,-6.566572,-2.8992299999999998,0.0,0.0,0.0,0.0
1866,-0.36438000000000004,3.846455,6.324076,-4.442483,-6.662446000000001,-2.9205360000000002,0.0,0.0,0.0,0.0
1868,-0.220797,3.784539,6.479935,-4.481898,-6.756189,-2.9450369999999997,45.984962,-56.304764,-28.882011,0.0
1871,-0.048494999999999996,3.6226010000000004,6.541333,-4.520247,-6.849932000000001,-2.968472,0.0,0.0,0.0,0.0
1873,0.023294,3.508293,6.631069,-4.556466,-6.94048,-2.988713,0.0,0.0,0.0,0.0
1876,0.075937,3.470193,6.697189999999999,-4.595880999999999,-7.026766,-3.017475,0.0,0.0,0.0,0.0
1878,0.15251099999999998,3.274914,6.753864999999999,-4.638491999999999,-7.109857000000001,-3.04091,45.601387,-53.605431,-34.061817,0.0
1881,0.142932,3.117739,6.81054,-4.681102,-7.1801639999999995,-3.064346,0.0,0.0,0.0,0.0
1883,0.138139,2.879594,6.867215,-4.726909,-7.245145,-3.0813900000000003,0.0,0.0,0.0,0.0
1886,0.02326,2.670027,7.027796,-4.771649,-7.297344,-3.094174,0.0,0.0,0.0,0.0
1888,-0.091619,2.379489,7.136425,-4.816391,-7.339954,-3.0995,45.056164,-50.530769,-39.084709000000004,0.0
1891,-0.220858,2.136581,7.136423,-4.864326999999999,-7.366586,-3.089913,0.0,0.0,0.0,0.0
1893,-0.474541,1.9555919999999998,7.245052,-4.920786,-7.382565,-3.071803,0.0,0.0,0.0,0.0
1896,-0.661215,1.874624,7.348957,-4.982572,-7.384695,-3.047302,0.0,0.0,0.0,0.0
1898,-0.819171,1.75079,7.537877000000001,-5.048618,-7.371911999999999,-3.012148,43.398258,-46.811928,-44.589706,0.0
1901,-0.9771280000000001,1.622193,7.774027,-5.11573,-7.354868,-2.9727330000000003,0.0,0.0,0.0,0.0
1903,-1.135084,1.412626,7.996009,-5.182841000000001,-7.345281,-2.933319,0.0,0.0,0.0,0.0
1905,-1.321758,1.288792,8.236881,-5.248888,-7.338889999999999,-2.885382,0.0,0.0,0.0,0.0
1908,-1.417492,1.174483,8.543877,-5.302151,-7.334629,-2.831053,41.457462,-43.252541,-50.195751,0.0
1910,-1.537158,0.960153,8.997287,-5.337305000000001,-7.333564,-2.771399,0.0,0.0,0.0,0.0
1913,-1.666396,0.78869,9.422358000000001,-5.357544,-7.325041000000001,-2.7032220000000002,0.0,0.0,0.0,0.0
1915,-1.7860610000000001,0.593411,9.743523,-5.359675,-7.322911,-2.625458,0.0,0.0,0.0,0.0
1918,-1.9440169999999999,0.407659,9.984396,-5.354349,-7.321846000000001,-2.53491,39.271713,-39.501381,-55.313362,0.0
1920,-1.939238,0.236195,10.385852,-5.343697,-7.322911,-2.432645,0.0,0.0,0.0,0.0
1923,-1.9057400000000002,0.164753,10.848707000000001,-5.317065,-7.3197149999999995,-2.319727,0.0,0.0,0.0,0.0
1925,-1.8387380000000002,0.088549,11.141534,-5.265932,-7.317585,-2.198287,0.0,0.0,0.0,0.0
1928,-1.7190860000000001,0.074263,11.443807000000001,-5.203082,-7.306932000000001,-2.07152,36.25893,-35.155495,-59.568493000000004,0.0
1930,-1.51328,0.09808,11.831094,-5.123187000000001,-7.299475999999999,-1.9490150000000002,0.0,0.0,0.0,0.0
1933,-1.2596100000000001,0.264786,12.190042,-5.031574,-7.284561999999999,-1.8254439999999998,0.0,0.0,0.0,0.0
1935,-0.9724360000000001,0.441018,12.492315,-4.93357,-7.25367,-1.7072,0.0,0.0,0.0,0.0
1938,-0.642185,0.58391,12.804034,-4.823848,-7.211059,-1.5910870000000001,32.199593,-30.736134999999997,-63.51268,0.0
1940,-0.335865,0.731564,13.210214,-4.703473000000001,-7.153535000000001,-1.48456,0.0,0.0,0.0,0.0
1943,-0.015187,0.9411360000000001,13.545547000000001,-4.575642,-7.072575,-1.388686,0.0,0.0,0.0,0.0
1944,0.0,0.0,0.0,0.0,0.0,0.0,0.0,0.0,0.0,240.555969
1945,0.22891,1.174524,13.743913000000001,-4.446744,-6.973505,-1.3013350000000001,0.0,0.0,0.0,0.0
1948,0.506512,1.360282,13.861988,-4.314652,-6.861653,-1.222505,27.917697999999998,-26.840956,-67.853806,0.0
1950,0.731463,1.446018,13.928107999999998,-4.181494,-6.747669999999999,-1.153263,0.0,0.0,0.0,0.0
1953,0.951628,1.5841459999999998,13.913938,-4.048336,-6.631557000000001,-1.092543,0.0,0.0,0.0,0.0
1955,1.099998,1.6651189999999998,13.729738000000001,-3.915178,-6.511181,-1.0382149999999999,0.0,0.0,0.0,0.0
1958,1.339309,1.688936,13.639999,-3.786282,-6.390807,-0.991343,23.763954000000002,-23.353517999999998,-70.651131,0.0
1960,1.492465,1.712754,13.602213,-3.6627110000000003,-6.269367,-0.952994,0.0,0.0,0.0,0.0
1963,1.564254,1.646075,13.545535999999998,-3.544467,-6.1468620000000005,-0.915709,0.0,0.0,0.0,0.0
1965,1.6504009999999998,1.550819,13.361335999999998,-3.430484,-6.0083779999999996,-0.8826860000000001,0.0,0.0,0.0,0.0
1967,0.0,0.0,0.0,0.0,0.0,0.0,19.517763000000002,-20.058491,-72.653114,0.0
1968,1.7604810000000002,1.550821,13.219645000000002,-3.327153,-5.869894,-0.849663,0.0,0.0,0.0,0.0
1970,1.760474,1.550824,13.271595000000001,-3.2334099999999997,-5.721822,-0.820901,0.0,0.0,0.0,0.0
1973,1.7748259999999998,1.512723,13.257425,-3.144993,-5.5588370000000005,-0.790008,0.0,0.0,0.0,0.0
1975,1.765247,1.488911,13.214916,-3.061903,-5.392656,-0.754854,0.0,0.0,0.0,0.0
1977,0.0,0.0,0.0,0.0,0.0,0.0,15.404125,-17.693007,-74.467163,0.0
1978,1.655154,1.431758,13.281038,-2.99053,-5.219018,-0.7175699999999999,0.0,0.0,0.0,0.0
1980,1.6120700000000001,1.374606,13.42745,-2.919157,-5.041119,-0.6706989999999999,0.0,0.0,0.0,0.0
1983,1.578559,1.331742,13.550248000000002,-2.842458,-4.858959,-0.615305,0.0,0.0,0.0,0.0
1985,1.564193,1.293641,13.578585,-2.766824,-4.677865,-0.558846,0.0,0.0,0.0,0.0
1987,0.0,0.0,0.0,0.0,0.0,0.0,11.295216,-14.796880999999999,-75.38916800000001,0.0
1988,1.511536,1.279355,13.649428,-2.6826689999999997,-4.491443,-0.502387,0.0,0.0,0.0,0.0
1990,1.482811,1.2269649999999999,13.739164,-2.589991,-4.31461,-0.44166700000000003,0.0,0.0,0.0,0.0
1993,1.4588729999999999,1.217442,13.720270999999999,-2.4983779999999998,-4.129254,-0.377751,0.0,0.0,0.0,0.0
1995,1.482798,1.231733,13.7675,-2.40357,-3.9524199999999996,-0.30850900000000003,0.0,0.0,0.0,0.0
1997,0.0,0.0,0.0,0.0,0.0,0.0,7.869694,-12.314304,-76.546265,0.0
1998,1.3870639999999999,1.255551,13.866682,-2.3045,-3.7755870000000002,-0.242463,0.0,0.0,0.0,0.0
2000,1.339194,1.179346,13.951695999999998,-2.2033,-3.5891660000000005,-0.177481,0.0,0.0,0.0,0.0
2003,1.291324,1.060275,13.880849,-2.107426,-3.404875,-0.11356600000000001,0.0,0.0,0.0,0.0
2005,1.276958,1.0078850000000001,13.824171,-2.006226,-3.222715,-0.044323,0.0,0.0,0.0,0.0
2007,0.0,0.0,0.0,0.0,0.0,0.0,5.1134260000000005,-10.996592,-76.96848299999999,0.0
2008,1.23866,0.907866,13.791109,-1.908222,-3.037359,0.025983999999999997,0.0,0.0,0.0,0.0
2010,1.162072,0.8792909999999999,13.696647,-1.8112830000000002,-2.85946,0.096291,0.0,0.0,0.0,0.0
2012,1.1189879999999999,0.879293,13.493554999999999,-1.716475,-2.69328,0.166599,0.0,0.0,0.0,0.0
2015,1.090263,0.831667,13.356585999999998,-1.630188,-2.5377509999999996,0.239037,0.0,0.0,0.0,0.0
2017,1.051966,0.73641,13.233785000000001,-1.542837,-2.397136,0.315736,3.3945769999999995,-9.761192,-77.237808,0.0
2020,1.023241,0.7554649999999999,13.002355999999999,-1.458681,-2.265044,0.38817399999999996,0.0,0.0,0.0,0.0
2022,1.051952,0.731653,12.827601,-1.379852,-2.144669,0.462742,0.0,0.0,0.0,0.0
2025,1.047159,0.6554479999999999,12.761478,-1.303153,-2.032816,0.544767,0.0,0.0,0.0,0.0
2027,1.07587,0.684028,12.648123,-1.229649,-1.92629,0.619336,1.618444,-8.158108,-77.365852,0.0
2030,1.1524450000000002,0.655454,12.501708,-1.158277,-1.819764,0.6960350000000001,0.0,0.0,0.0,0.0
2032,1.1907290000000001,0.536382,12.322231,-1.087969,-1.718564,0.773799,0.0,0.0,0.0,0.0
2035,1.257731,0.48399200000000003,12.256108,-1.021923,-1.628017,0.843041,0.0,0.0,0.0,0.0
2037,1.363024,0.498284,12.175815,-0.9537459999999999,-1.5438610000000001,0.913349,-0.404325,-6.890942,-78.052109,0.0
2040,1.559258,0.469709,12.081353,-0.8898309999999999,-1.465032,0.9751340000000001,0.0,0.0,0.0,0.0
2042,1.67891,0.364927,12.053013,-0.8227190000000001,-1.386202,1.033723,0.0,0.0,0.0,0.0
2045,1.8512110000000002,0.383981,11.958551,-0.7566729999999999,-1.306308,1.0869870000000001,0.0,0.0,0.0,0.0
2047,2.047445,0.317303,11.949103,-0.691692,-1.223217,1.132793,-1.740662,-6.034384999999999,-79.128059,0.0
2050,2.21496,0.255387,11.78852,-0.6299060000000001,-1.150779,1.1690120000000002,0.0,0.0,0.0,0.0
2052,2.420766,0.250627,11.722396,-0.5702520000000001,-1.076211,1.2084270000000001,0.0,0.0,0.0,0.0
2055,2.56435,0.260155,11.722395,-0.5105970000000001,-0.997382,1.2371889999999999,0.0,0.0,0.0,0.0
2057,2.722293,0.21729099999999998,11.793238,-0.456268,-0.9121610000000001,1.2638209999999999,-2.6067169999999997,-5.054288,-79.051949,0.0
2060,2.841945,0.250635,11.845189999999999,-0.400875,-0.824809,1.289387,0.0,0.0,0.0,0.0
2062,2.91852,0.250637,11.963264,-0.346546,-0.731066,1.311757,0.0,0.0,0.0,0.0
2065,2.966376,0.193485,12.138016,-0.293283,-0.627735,1.328802,0.0,0.0,0.0,0.0
2067,3.009447,0.188724,12.213582,-0.237889,-0.5297310000000001,1.351172,-3.550003,-4.251868,-78.95354499999999,0.0
2070,3.071662,0.174438,12.355272,-0.178235,-0.42853100000000005,1.367151,0.0,0.0,0.0,0.0
2072,3.172169,0.18396700000000002,12.506407000000001,-0.11857999999999999,-0.32094,1.381,0.0,0.0,0.0,0.0
2075,3.243957,0.164918,12.553637,-0.048273,-0.209087,1.3948479999999999,0.0,0.0,0.0,0.0
2077,3.358823,0.13634300000000002,12.610312,0.0231,-0.101496,1.404435,-3.952462,-4.418401,-78.265907,0.0
2080,3.425825,0.055375,12.615033,0.096603,0.008226,1.416153,0.0,0.0,0.0,0.0
2082,3.5024,0.074429,12.681153,0.176498,0.12007899999999999,1.425741,0.0,0.0,0.0,0.0
2085,3.583761,0.15064,12.808675,0.258523,0.230866,1.428936,0.0,0.0,0.0,0.0
2087,3.631618,0.117302,12.728381,0.33522199999999996,0.354437,1.428936,-4.162249,-3.6665349999999997,-78.43154100000001,0.0
2090,3.6172519999999997,0.160171,12.747272,0.41405200000000003,0.46948500000000004,1.430002,0.0,0.0,0.0,0.0
2092,3.612459,0.183988,12.870069,0.48862,0.595186,1.424675,0.0,0.0,0.0,0.0
2095,3.5789480000000005,0.160176,12.851175999999999,0.557862,0.723018,1.4204139999999998,0.0,0.0,0.0,0.0
2096,0.0,0.0,0.0,0.0,0.0,0.0,0.0,0.0,0.0,379.00827000000004
2097,3.483214,0.141127,12.799221000000001,0.629235,0.850849,1.411892,-4.150073,-3.654751,-79.04998,0.0
2100,3.425771,0.050634,12.84645,0.696347,0.973354,1.404436,0.0,0.0,0.0,0.0
2102,3.3156779999999997,-0.006519,12.780325999999999,0.761328,1.094794,1.400174,0.0,0.0,0.0,0.0
2105,3.181653,-0.073198,12.75671,0.826309,1.2077120000000001,1.3969790000000002,0.0,0.0,0.0,0.0
2107,3.1433560000000003,-0.101773,12.629188000000001,0.8912899999999999,1.312108,1.393783,-3.606201,-4.620757,-78.615364,0.0
2110,3.038049,-0.092244,12.539448,0.9573360000000001,1.404786,1.398044,0.0,0.0,0.0,0.0
2112,2.932743,-0.135108,12.468601,1.021252,1.491072,1.404436,0.0,0.0,0.0,0.0
2115,2.837009,-0.168446,12.482768,1.078776,1.569901,1.415088,0.0,0.0,0.0,0.0
2117,2.693412,-0.11128800000000001,12.529997999999999,1.1341700000000001,1.6508610000000001,1.427871,-2.46639,-5.450245,-78.126595,0.0
2119,2.583319,-0.06841900000000001,12.600842,1.1959549999999999,1.728625,1.442785,0.0,0.0,0.0,0.0
2122,2.406218,-0.077942,12.733086,1.2588059999999999,1.81065,1.459829,0.0,0.0,0.0,0.0
2124,2.22433,-0.06365,12.794483,1.3227209999999998,1.8990669999999998,1.485396,0.0,0.0,0.0,0.0
2127,2.008937,-0.158907,12.851158,1.3919629999999998,1.9960060000000002,1.513093,-1.567126,-6.60977,-78.50524899999999,0.0
2129,1.8653400000000002,-0.18748199999999998,12.969233000000001,1.4622709999999999,2.0950759999999997,1.54505,0.0,0.0,0.0,0.0
2132,1.7552470000000002,-0.192242,13.021184,1.540035,2.1941450000000002,1.5834,0.0,0.0,0.0,0.0
2134,1.640368,-0.187476,13.025905999999999,1.615669,2.29641,1.629206,0.0,0.0,0.0,0.0
2137,1.5207030000000001,-0.225577,13.077858,1.694498,2.401871,1.6814040000000001,0.12900699999999998,-8.181646,-79.598457,0.0
2139,1.491978,-0.22081199999999998,13.115641,1.7797189999999998,2.508398,1.7346669999999997,0.0,0.0,0.0,0.0
2142,1.4345350000000001,-0.21604600000000002,13.162870000000002,1.86494,2.613859,1.7943220000000002,0.0,0.0,0.0,0.0
2144,1.4632459999999998,-0.23509499999999997,13.328175,1.954423,2.729972,1.8550419999999999,0.0,0.0,0.0,0.0
2147,1.424949,-0.196989,13.436803,2.042839,2.8578040000000002,1.915762,1.605947,-9.22233,-78.995308,0.0
2149,1.448874,-0.182697,13.578492,2.1355169999999997,2.9962880000000003,1.9775479999999999,0.0,0.0,0.0,0.0
2152,1.4823709999999999,-0.139828,13.691844,2.231391,3.141164,2.038268,0.0,0.0,0.0,0.0
2154,1.573305,-0.12553599999999998,13.762687,2.3315259999999998,3.2934959999999998,2.097922,0.0,0.0,0.0,0.0
2157,1.64988,-0.08743,13.80047,2.43166,3.4436980000000004,2.155447,3.2885449999999996,-10.281244000000001,-78.268814,0.0
2159,1.793463,-0.087427,13.890206,2.5360560000000003,3.5949660000000003,2.2044490000000003,0.0,0.0,0.0,0.0
2162,1.8508930000000001,-0.116002,13.866589999999999,2.6393869999999997,3.739841,2.2555810000000003,0.0,0.0,0.0,0.0
2164,1.941827,-0.163629,13.809911999999999,2.742717,3.886847,2.301388,0.0,0.0,0.0,0.0
2167,2.023188,-0.154101,13.861865,2.840721,4.035985,2.346129,5.560395,-12.473806,-78.028702,0.0
2169,2.032754,-0.163624,13.786294,2.93553,4.185122,2.386609,0.0,0.0,0.0,0.0
2172,2.066252,-0.21601399999999998,13.602095000000002,3.0207509999999997,4.328932,2.429219,0.0,0.0,0.0,0.0
2174,2.051886,-0.249352,13.380111,3.0942540000000003,4.466351,2.4750259999999997,0.0,0.0,0.0,0.0
2177,2.0949560000000003,-0.23506,13.134511999999999,3.152844,4.598443,2.518702,8.178234,-15.080561,-76.73988299999999,0.0
2179,2.1236669999999997,-0.163613,12.893636,3.200781,4.722013,2.555986,0.0,0.0,0.0,0.0
2182,2.1188740000000004,-0.011196,12.648037,3.2455220000000002,4.82854,2.586878,0.0,0.0,0.0,0.0
2184,2.1715169999999997,0.045962,12.506344,3.27961,4.92974,2.617771,0.0,0.0,0.0,0.0
2187,2.2863830000000003,0.088831,12.402436,3.3136989999999997,5.0117650000000005,2.644403,11.503534,-18.289125,-75.52486400000001,0.0
2189,2.420394,0.060256,12.36465,3.3477870000000003,5.09379,2.664643,0.0,0.0,0.0,0.0
2192,2.540046,-0.0016589999999999999,12.359926,3.377614,5.171555000000001,2.6827520000000002,0.0,0.0,0.0,0.0
2194,2.621407,0.060262,12.416601,3.404246,5.254645,2.696601,0.0,0.0,0.0,0.0
2197,2.774564,0.131709,12.515783,3.4308769999999997,5.347323,2.705123,14.990469000000001,-21.87303,-74.466766,0.0
2199,2.884643,0.184104,12.577181,3.4564440000000003,5.451718,2.710449,0.0,0.0,0.0,0.0
2202,2.999508,0.27460300000000004,12.643303,3.486271,5.5550489999999995,2.706188,0.0,0.0,0.0,0.0
2204,3.047365,0.336524,12.770823,3.5203589999999996,5.664771,2.6997970000000002,0.0,0.0,0.0,0.0
2207,3.138299,0.40797100000000003,12.827497,3.555513,5.779819,2.684883,18.234410999999998,-24.525637,-73.271744,0.0
2209,3.2292330000000002,0.465129,12.888896,3.592797,5.892737,2.668904,0.0,0.0,0.0,0.0
2212,3.253158,0.5508649999999999,12.917233,3.6258199999999996,6.00459,2.644403,0.0,0.0,0.0,0.0
2214,3.2818690000000004,0.5984970000000001,12.893616999999999,3.658844,6.102594,2.618837,0.0,0.0,0.0,0.0
2217,3.296221,0.641366,12.865277,3.698258,6.192076,2.585813,21.350735,-27.930753999999997,-70.62730400000001,0.0
2219,3.2339919999999998,0.622317,12.898337,3.7344769999999996,6.268775,2.549594,0.0,0.0,0.0,0.0
2221,3.152617,0.674713,12.879442999999998,3.773892,6.333756,2.514441,0.0,0.0,0.0,0.0
2224,3.004234,0.636612,12.884165,3.815437,6.385953,2.479287,0.0,0.0,0.0,0.0
2226,2.874995,0.650903,12.747195,3.864439,6.412585,2.440938,0.0,0.0,0.0,0.0
2227,0.0,0.0,0.0,0.0,0.0,0.0,24.365753,-31.325281,-68.121849,0.0
2229,2.712253,0.693772,12.619672,3.916637,6.428564,2.407914,0.0,0.0,0.0,0.0
2231,2.5973740000000003,0.736642,12.41658,3.96777,6.421107,2.377022,0.0,0.0,0.0,0.0
2234,2.4011270000000002,0.8176140000000001,12.142643,4.022099,6.392345,2.347195,0.0,0.0,0.0,0.0
2236,2.2335979999999998,0.8700100000000001,11.778969,4.073231,6.33482,2.318433,0.0,0.0,0.0,0.0
2237,0.0,0.0,0.0,0.0,0.0,0.0,27.792084000000003,-34.756264,-65.369698,0.0
2239,1.9033330000000002,0.927168,11.462524,4.119038,6.259187,2.291801,0.0,0.0,0.0,0.0
2241,1.7645220000000001,0.9938520000000001,11.117741,4.159517,6.157987,2.264104,0.0,0.0,0.0,0.0
2244,1.510839,1.070062,10.725729,4.194671,6.033351000000001,2.241734,0.0,0.0,0.0,437.457733
2246,1.266728,1.131983,10.41873,4.21278,5.896997,2.222559,0.0,0.0,0.0,0.0
2247,0.0,0.0,0.0,0.0,0.0,0.0,30.478832,-38.142593,-62.044292000000006,0.0
2249,1.056122,1.25106,9.998379,4.223433,5.748925,2.20871,0.0,0.0,0.0,0.0
2251,0.8885930000000001,1.351084,9.58275,4.220237,5.589135,2.198058,0.0,0.0,0.0,0.0
2254,0.730637,1.508264,9.242691,4.2010629999999995,5.424019,2.183144,0.0,0.0,0.0,0.0
2256,0.572681,1.7321259999999998,8.827063,4.165909,5.255708,2.169296,0.0,0.0,0.0,0.0
2257,0.0,0.0,0.0,0.0,0.0,0.0,32.275448,-40.360565,-58.80405,0.0
2259,0.49609200000000003,1.898832,8.496449,4.1254290000000005,5.0863309999999995,2.157578,0.0,0.0,0.0,0.0
2261,0.323777,2.079827,8.260296,4.0742959999999995,4.9137580000000005,2.142664,0.0,0.0,0.0,0.0
2264,0.18018,2.298925,8.024142999999999,4.015707,4.755033,2.12562,0.0,0.0,0.0,0.0
2266,0.012651,2.413239,7.821052000000001,3.9464639999999997,4.604831,2.10751,0.0,0.0,0.0,0.0
2267,0.0,0.0,0.0,0.0,0.0,0.0,34.257774,-43.142128,-55.559447999999996,0.0
2269,-0.09265599999999999,2.670441,7.665189999999999,3.872961,4.461021,2.0915310000000003,0.0,0.0,0.0,0.0
2271,-0.140526,2.980036,7.547113,3.7930660000000005,4.328927999999999,2.072357,0.0,0.0,0.0,0.0
2274,-0.126174,3.194372,7.504604,3.7184980000000003,4.214944,2.0478560000000003,0.0,0.0,0.0,0.0
2276,-0.255412,3.3372629999999996,7.537664,3.641799,4.1201360000000005,2.020159,0.0,0.0,0.0,0.0
2277,0.0,0.0,0.0,0.0,0.0,0.0,35.907097,-46.446135999999996,-52.386932,0.0
2279,-0.332,3.465865,7.6274,3.568296,4.053024,1.9977880000000001,0.0,0.0,0.0,0.0
2281,-0.346366,3.623045,7.731306,3.499053,4.0050870000000005,1.966896,0.0,0.0,0.0,0.0
2284,-0.274577,3.8135660000000002,7.877717999999999,3.4308769999999997,3.9731300000000003,1.932807,0.0,0.0,0.0,0.0
2286,-0.29373,3.9421690000000003,8.08553,3.370157,3.969934,1.8976540000000002,0.0,0.0,0.0,0.0
2287,0.0,0.0,0.0,0.0,0.0,0.0,36.439331,-48.584167,-48.340656,0.0
2289,-0.303309,3.9993269999999996,8.302788,3.3168940000000005,3.9859120000000003,1.858239,0.0,0.0,0.0,0.0
2291,-0.322461,4.051722,8.543661,3.271087,4.023197,1.8198889999999999,0.0,0.0,0.0,0.0
2294,-0.322468,4.166036,8.907333,3.231673,4.093504,1.782605,0.0,0.0,0.0,0.0
2296,-0.298543,4.218431,9.289897,3.2071709999999998,4.189378,1.742125,0.0,0.0,0.0,0.0
2297,0.0,0.0,0.0,0.0,0.0,0.0,37.166405,-51.276978,-44.753853,0.0
2299,-0.355986,4.2708260000000005,9.606339,3.1922580000000003,4.309752,1.7101669999999998,0.0,0.0,0.0,0.0
2301,-0.442147,4.3422730000000005,9.988903,3.189062,4.459954,1.677144,0.0,0.0,0.0,0.0
2304,-0.595317,4.361328,10.28173,3.198649,4.62507,1.648382,0.0,0.0,0.0,0.0
2306,-0.729341,4.3089379999999995,10.588725,3.22315,4.798708,1.629207,0.0,0.0,0.0,0.0
2307,0.0,0.0,0.0,0.0,0.0,0.0,38.141476000000004,-54.158592000000006,-41.810089000000005,0.0
2309,-0.9112290000000001,4.2756,10.862658999999999,3.2572389999999998,4.968084999999999,1.616424,0.0,0.0,0.0,0.0
2311,-1.0308950000000001,4.280365,10.947674000000001,3.3019800000000004,5.1332,1.612163,0.0,0.0,0.0,0.0
2314,-1.117056,4.189872,11.027963,3.3573730000000004,5.290858999999999,1.620685,0.0,0.0,0.0,0.0
2316,-1.184072,4.104141,11.065746,3.424485,5.439996,1.634534,0.0,0.0,0.0,0.0
2317,0.0,0.0,0.0,0.0,0.0,0.0,39.135128,-55.970093000000006,-37.546085,0.0
2319,-1.203224,4.104144,11.023237,3.5043800000000003,5.57635,1.6569040000000002,0.0,0.0,0.0,0.0
2321,-1.1792989999999999,4.104147,10.862653,3.5821440000000004,5.690333,1.6877970000000002,0.0,0.0,0.0,0.0
2324,-1.184092,4.075572,10.683176,3.663104,5.776619,1.7218849999999999,0.0,0.0,0.0,0.0
2326,-1.1793120000000001,4.0851,10.432855,3.74726,5.838404,1.7591700000000001,0.0,0.0,0.0,0.0
2327,0.0,0.0,0.0,0.0,0.0,0.0,39.690353,-57.559814,-33.535435,0.0
2328,-1.193678,4.0803400000000005,10.050286999999999,3.8239589999999994,5.868232,1.79965,0.0,0.0,0.0,0.0
2331,-1.184112,4.118446,9.629936,3.9017230000000005,5.865036,1.8401299999999998,0.0,0.0,0.0,0.0
2333,-1.145828,4.175605,9.171801,3.967769,5.8266860000000005,1.8795439999999999,0.0,0.0,0.0,0.0
2336,-1.160194,4.337548,8.671159,4.024229,5.763835,1.9178939999999998,0.0,0.0,0.0,0.0
2337,0.0,0.0,0.0,0.0,0.0,0.0,40.144268,-59.138954000000005,-29.663765,0.0
2338,-1.141055,4.380417,8.099669,4.072165,5.665831,1.9498520000000001,0.0,0.0,0.0,0.0
2341,-1.093199,4.570938,7.5848580000000005,4.106254,5.539064,1.9775490000000002,0.0,0.0,0.0,0.0
2343,-1.097992,4.6471480000000005,7.022816000000001,4.126494,5.393123999999999,1.994593,0.0,0.0,0.0,0.0
2346,-1.08364,4.718595,6.503280999999999,4.128623999999999,5.223747,1.9988540000000001,0.0,0.0,0.0,0.0
2347,0.0,0.0,0.0,0.0,0.0,0.0,40.47665,-61.464698999999996,-24.651899,0.0
2348,-1.035783,4.866249,5.950685,4.1190370000000005,5.0362599999999995,1.992462,0.0,0.0,0.0,0.0
2351,-0.968781,4.951985,5.393366,4.090275,4.83386,1.9764830000000002,0.0,0.0,0.0,0.0
2353,-0.940069,5.094876,4.812432,4.05299,4.619742,1.9551779999999999,0.0,0.0,0.0,0.0
2356,-0.925717,5.256819,4.325958,3.9997269999999996,4.398167,1.9274810000000002,0.0,0.0,0.0,0.0
2357,0.0,0.0,0.0,0.0,0.0,0.0,40.190983,-62.999168000000004,-20.206968,0.0
2358,-0.901792,5.36637,3.976453,3.92942,4.182983999999999,1.885936,0.0,0.0,0.0,0.0
2361,-0.9065850000000001,5.5092620000000005,3.6930690000000004,3.858047,3.9678,1.8379990000000002,0.0,0.0,0.0,0.0
2363,-0.930524,5.571182,3.334118,3.7770870000000003,3.76327,1.7858009999999997,0.0,0.0,0.0,0.0
2366,-0.9018120000000001,5.742651,3.050735,3.6897349999999998,3.5651300000000004,1.726147,0.0,0.0,0.0,0.0
2367,0.0,0.0,0.0,0.0,0.0,0.0,39.483779999999996,-63.769431999999995,-15.741798999999999,0.0
2368,-0.916178,5.956987000000001,2.8570889999999998,3.5949269999999998,3.375514,1.6601,0.0,0.0,0.0,0.0
2371,-0.992767,6.014145,2.710673,3.503314,3.2008099999999997,1.5876620000000001,0.0,0.0,0.0,0.0
2373,-1.007133,6.142748,2.47452,3.4042449999999995,3.032498,1.515224,0.0,0.0,0.0,0.0
2376,-1.0310709999999998,6.347558,2.25726,3.2987830000000002,2.872709,1.4438520000000001,0.0,0.0,0.0,0.0
2377,0.0,0.0,0.0,0.0,0.0,0.0,38.541835999999996,-65.075676,-11.055125,0.0
2378,-1.0310780000000002,6.52379,2.22892,3.192257,2.724637,1.362892,0.0,0.0,0.0,0.0
2381,-0.988007,6.642866000000001,2.219473,3.080404,2.588283,1.278736,0.0,0.0,0.0,0.0
2383,-1.035878,6.83815,2.238364,2.976008,2.4796259999999997,1.19245,0.0,0.0,0.0,0.0
2386,-1.1028930000000001,6.857203999999999,2.2667,2.874809,2.385883,1.107229,0.0,0.0,0.0,0.0
2387,0.0,0.0,0.0,0.0,0.0,0.0,37.282990000000005,-65.413521,-7.761999,0.0
2388,-1.141191,6.847681,2.417836,2.7768040000000003,2.31451,1.027334,0.0,0.0,0.0,0.0
2391,-1.241711,6.904839,2.507572,2.685192,2.252725,0.9463739999999999,0.0,0.0,0.0,0.0
2393,-1.265649,6.952471000000001,2.8051220000000003,2.595709,2.206918,0.8675440000000001,0.0,0.0,0.0,0.0
2395,0.0,0.0,0.0,0.0,0.0,0.0,0.0,0.0,0.0,343.447357
2396,-1.327879,6.9429479999999995,3.0318259999999997,2.51688,2.185613,0.7951060000000001,0.0,0.0,0.0,0.0
2397,0.0,0.0,0.0,0.0,0.0,0.0,36.752914000000004,-66.33255799999999,-5.624948000000001,0.0
2398,-1.428399,6.928661999999999,3.310483,2.442312,2.180287,0.727995,0.0,0.0,0.0,0.0
2401,-1.524133,6.885797999999999,3.5513559999999997,2.383722,2.1962650000000004,0.6683399999999999,0.0,0.0,0.0,0.0
2403,-1.6102940000000001,6.866749,3.6788769999999995,2.33685,2.214375,0.622534,0.0,0.0,0.0,0.0
2406,-1.701241,6.885803999999999,3.7213830000000003,2.295305,2.239941,0.584184,0.0,0.0,0.0,0.0
2407,0.0,0.0,0.0,0.0,0.0,0.0,36.582958000000005,-66.914467,-3.409147,0.0
2408,-1.825693,6.82865,3.79695,2.263347,2.272964,0.553292,0.0,0.0,0.0,0.0
2411,-1.964504,6.833416000000001,3.7638870000000004,2.239911,2.2995959999999998,0.528791,0.0,0.0,0.0,0.0
2413,-2.1033150000000003,6.842944999999999,3.7591629999999996,2.223932,2.31877,0.517073,0.0,0.0,0.0,0.0
2416,-2.242126,6.862,3.744992,2.2143450000000002,2.334749,0.511746,0.0,0.0,0.0,0.0
2417,0.0,0.0,0.0,0.0,0.0,0.0,36.432949,-66.95101899999999,-1.074363,0.0
2418,-2.3043549999999997,6.857239,3.6741449999999998,2.213279,2.343271,0.510681,0.0,0.0,0.0,0.0
2421,-2.352225,6.876294000000001,3.584406,2.2143450000000002,2.342206,0.514942,0.0,0.0,0.0,0.0
2423,-2.404881,6.881060000000001,3.546621,2.217541,2.331553,0.522399,0.0,0.0,0.0,0.0
2426,-2.424034,6.900114,3.352975,2.219671,2.311313,0.527725,0.0,0.0,0.0,0.0
2427,0.0,0.0,0.0,0.0,0.0,0.0,36.28294,-66.987564,1.260422,0.0
2428,-2.414468,6.938219999999999,3.164052,2.219671,2.281485,0.534117,0.0,0.0,0.0,0.0
2431,-2.419261,7.000141,2.956237,2.216475,2.2378099999999996,0.541574,0.0,0.0,0.0,0.0
2433,-2.366618,6.9906179999999996,2.776761,2.206888,2.186677,0.540509,0.0,0.0,0.0,0.0
2435,-2.256539,7.066828,2.535885,2.190909,2.1163689999999997,0.5351819999999999,0.0,0.0,0.0,0.0
2437,0.0,0.0,0.0,0.0,0.0,0.0,35.470573,-66.801773,4.146169,0.0
2438,-2.122528,7.1811419999999995,2.257225,2.169604,2.0258220000000002,0.52453,0.0,0.0,0.0,0.0
2440,-1.9071490000000002,7.285928999999999,1.9643959999999998,2.1355150000000003,1.920361,0.5010939999999999,0.0,0.0,0.0,0.0
2443,-1.7827110000000002,7.4335830000000005,1.6526740000000002,2.097166,1.793594,0.468071,0.0,0.0,0.0,0.0
2445,-1.677418,7.614578,1.2701069999999999,2.049229,1.638066,0.42226400000000003,0.0,0.0,0.0,0.0
2447,0.0,0.0,0.0,0.0,0.0,0.0,34.719623999999996,-67.717308,6.932925999999999,0.0
2448,-1.519475,7.819388000000001,1.019785,1.9970310000000002,1.45484,0.367936,0.0,0.0,0.0,0.0
2450,-1.380678,7.943227,0.726956,1.9331150000000001,1.255636,0.299759,0.0,0.0,0.0,0.0
2453,-1.328035,8.028964,0.490803,1.8596119999999998,1.038322,0.22199499999999997,0.0,0.0,0.0,0.0
2455,-1.280178,8.090885,0.26881900000000003,1.7839779999999998,0.805029,0.13997,0.0,0.0,0.0,0.0
2457,0.0,0.0,0.0,0.0,0.0,0.0,34.525585,-68.110962,8.987453,0.0
2458,-1.217962,8.171858,0.122404,1.7051490000000002,0.561084,0.051552999999999995,0.0,0.0,0.0,0.0
2460,-1.1413870000000002,8.281408,0.098787,1.6241889999999999,0.313942,-0.044321,0.0,0.0,0.0,0.0
2463,-1.150967,8.314753,0.065724,1.544294,0.065736,-0.142325,0.0,0.0,0.0,0.0
2465,-1.1605459999999999,8.386198,0.12239900000000001,1.461203,-0.170753,-0.24139499999999997,0.0,0.0,0.0,0.0
2467,0.0,0.0,0.0,0.0,0.0,0.0,34.471073,-67.952148,10.372277,0.0
2468,-1.11269,8.40049,0.18852,1.388765,-0.40298,-0.33726799999999996,0.0,0.0,0.0,0.0
2470,-1.2132100000000001,8.371916,0.311318,1.32485,-0.620294,-0.43527299999999997,0.0,0.0,0.0,0.0
2473,-1.256294,8.429072999999999,0.372716,1.257738,-0.8280209999999999,-0.526885,0.0,0.0,0.0,0.0
2475,-1.3616,8.433838,0.405776,1.198083,-1.0187030000000001,-0.611041,0.0,0.0,0.0,0.0
2477,0.0,0.0,0.0,0.0,0.0,0.0,34.62722,-67.06910699999999,11.374328,0.0
2478,-1.476479,8.405264,0.495512,1.136298,-1.199798,-0.6951970000000001,0.0,0.0,0.0,0.0
2480,-1.6009309999999999,8.281429,0.47661800000000004,1.0745129999999998,-1.363848,-0.778287,0.0,0.0,0.0,0.0
2483,-1.6488009999999997,8.233803,0.377433,1.004205,-1.521508,-0.851791,0.0,0.0,0.0,0.0
2485,-1.6966709999999998,8.171886,0.382155,0.9232450000000001,-1.6717099999999998,-0.923163,0.0,0.0,0.0,0.0
2487,0.0,0.0,0.0,0.0,0.0,0.0,35.318375,-66.949074,11.876674000000001,0.0
2488,-1.768473,8.109972,0.320754,0.8422850000000001,-1.814455,-0.9956010000000001,0.0,0.0,0.0,0.0
2490,-1.892925,8.1195,0.396321,0.7591939999999999,-1.947613,-1.064843,0.0,0.0,0.0,0.0
2493,-2.036522,8.090925,0.504949,0.670778,-2.060531,-1.124498,0.0,0.0,0.0,0.0
2495,-2.21841,8.138557,0.5332859999999999,0.588752,-2.15747,-1.183087,0.0,0.0,0.0,0.0
2497,0.0,0.0,0.0,0.0,0.0,0.0,36.492268,-66.481888,11.514474,0.0
2498,-2.52953,8.195715,0.599407,0.512053,-2.240561,-1.231024,0.0,0.0,0.0,0.0
2500,-2.840649,8.233822,0.6985899999999999,0.44281099999999995,-2.304477,-1.265113,0.0,0.0,0.0,0.0
2503,-3.190059,8.105226,0.71748,0.38209099999999996,-2.35561,-1.289614,0.0,0.0,0.0,0.0
2505,-3.5107510000000004,7.981391,0.8213860000000001,0.324567,-2.3950240000000003,-1.298136,0.0,0.0,0.0,0.0
2507,0.0,0.0,0.0,0.0,0.0,0.0,37.645126,-65.823479,10.836391,0.0
2508,-3.797939,8.000445,0.774154,0.269173,-2.4259169999999997,-1.2960049999999999,0.0,0.0,0.0,0.0
2510,-4.1521360000000005,7.952818,0.627738,0.213779,-2.4482880000000002,-1.280026,0.0,0.0,0.0,0.0
2513,-4.49676,7.8146949999999995,0.36796999999999996,0.15732000000000002,-2.4706580000000002,-1.248068,0.0,0.0,0.0,0.0
2515,-4.7648019999999995,7.809935,0.112925,0.0966,-2.502616,-1.206523,0.0,0.0,0.0,0.0
2517,0.0,0.0,0.0,0.0,0.0,0.0,38.569340000000004,-65.69516800000001,10.070591,0.0
2518,-5.023271,7.728967999999999,-0.156289,0.034815,-2.542031,-1.154325,0.0,0.0,0.0,0.0
2520,-5.229091,7.671814,-0.491625,-0.037623000000000004,-2.589968,-1.097866,0.0,0.0,0.0,0.0
2523,-5.430124,7.690869,-0.841131,-0.12390899999999999,-2.646427,-1.035016,0.0,0.0,0.0,0.0
2525,-5.568935,7.648005,-1.185914,-0.216587,-2.720996,-0.9732299999999999,0.0,0.0,0.0,0.0
2527,0.0,0.0,0.0,0.0,0.0,0.0,39.907909000000004,-65.600365,9.396869,0.0
2528,-5.621592,7.652771,-1.58265,-0.324179,-2.808347,-0.907184,0.0,0.0,0.0,0.0
2530,-5.626385,7.643248,-1.9982779999999998,-0.450945,-2.912743,-0.842203,0.0,0.0,0.0,0.0
2533,-5.612032,7.695643,-2.399737,-0.5841029999999999,-3.040575,-0.779352,0.0,0.0,0.0,0.0
2535,-5.525885,7.690882000000001,-2.777581,-0.73537,-3.191843,-0.719698,0.0,0.0,0.0,0.0
2537,0.0,0.0,0.0,0.0,0.0,0.0,40.791142,-65.82621,8.1962,0.0
2538,-5.291361,7.724226,-3.103472,-0.896225,-3.36335,-0.663239,0.0,0.0,0.0,0.0
2540,-5.066408999999999,7.757569,-3.3585160000000003,-1.069863,-3.5550980000000005,-0.611041,0.0,0.0,0.0,0.0
2542,-4.827099,7.881408,-3.5710550000000003,-1.255219,-3.7606940000000004,-0.5663,0.0,0.0,0.0,0.0
2544,0.0,0.0,0.0,0.0,0.0,0.0,0.0,0.0,0.0,92.187386
2545,-4.487275,7.9766710000000005,-3.7458080000000002,-1.445901,-3.997182,-0.532211,0.0,0.0,0.0,0.0
2547,-4.209673,8.01954,-3.844993,-1.6440400000000002,-4.242193,-0.509841,41.390671000000005,-65.26306899999999,5.299428,0.0
2550,-3.7741230000000003,8.124327000000001,-3.7505330000000003,-1.849636,-4.495726,-0.49705699999999997,0.0,0.0,0.0,0.0
2552,-3.3577169999999996,8.167196,-3.660797,-2.0584279999999997,-4.75565,-0.490666,0.0,0.0,0.0,0.0
2555,-2.903021,8.114807,-3.4671550000000004,-2.265089,-5.026227,-0.49705699999999997,0.0,0.0,0.0,0.0
2557,-2.376529,8.148150999999999,-3.212112,-2.468554,-5.290412,-0.516232,42.455765,-65.10704799999999,2.662673,0.0
2560,-1.8835419999999998,8.033842,-2.84844,-2.6666939999999997,-5.550337,-0.549255,0.0,0.0,0.0,0.0
2562,-1.4384190000000001,7.938586,-2.4233689999999997,-2.861637,-5.807066000000001,-0.593996,0.0,0.0,0.0,0.0
2565,-1.0363719999999998,7.881433,-1.9510669999999999,-3.052319,-6.055272,-0.6440640000000001,0.0,0.0,0.0,0.0
2567,-0.691762,7.767125,-1.549611,-3.2312830000000003,-6.29176,-0.701588,42.66502,-64.698669,-0.164904,0.0
2570,-0.347152,7.662342,-1.034802,-3.4027910000000006,-6.513336,-0.7697649999999999,0.0,0.0,0.0,0.0
2572,-0.083909,7.576612,-0.401917,-3.5593839999999997,-6.7189309999999995,-0.845398,0.0,0.0,0.0,0.0
2575,0.064461,7.433725999999999,0.273475,-3.7031949999999996,-6.910678999999999,-0.924228,0.0,0.0,0.0,0.0
2577,0.17454,7.347996000000001,1.104727,-3.8235699999999997,-7.068338000000001,-0.9977309999999999,42.617691,-63.686638,-4.68192,0.0
2580,0.07402,7.23845,2.03044,-3.9173129999999996,-7.181255999999999,-1.0701690000000001,0.0,0.0,0.0,0.0
2582,-0.160518,7.114617,3.012829,-3.986555,-7.233453999999999,-1.130889,0.0,0.0,0.0,0.0
2585,-0.47642399999999996,7.000308,3.7260050000000002,-4.030231,-7.222802000000001,-1.1745649999999999,0.0,0.0,0.0,0.0
2586,0.0,0.0,0.0,0.0,0.0,0.0,42.673035,-63.209945999999995,-10.261211999999999,0.0
2587,-0.821047,6.866948,4.254982,-4.060058000000001,-7.162082000000001,-1.208653,0.0,0.0,0.0,0.0
2590,-1.170458,6.714537,4.746176999999999,-4.079233,-7.069404,-1.225697,0.0,0.0,0.0,0.0
2592,-1.6203809999999998,6.5764130000000005,5.157079,-4.084559,-6.954356,-1.219306,0.0,0.0,0.0,0.0
2595,-2.0320139999999998,6.466868,5.501859,-4.080298,-6.808414,-1.2022620000000002,0.0,0.0,0.0,0.0
2596,0.0,0.0,0.0,0.0,0.0,0.0,42.844902000000005,-62.729103,-16.474577,0.0
2597,-2.520228,6.3620849999999995,5.794684999999999,-4.068581,-6.646494000000001,-1.168173,0.0,0.0,0.0,0.0
2600,-3.027588,6.309696,6.016666000000001,-4.047275,-6.466465,-1.118106,0.0,0.0,0.0,0.0
2602,-3.496657,6.233491000000001,6.1914169999999995,-4.020644,-6.274718,-1.048864,0.0,0.0,0.0,0.0
2605,-3.951366,6.200153,6.266984,-3.992947,-6.08084,-0.962577,0.0,0.0,0.0,0.0
2606,0.0,0.0,0.0,0.0,0.0,0.0,42.696265999999994,-61.706497,-21.130571,0.0
2607,-4.372572,6.15729,6.266983,-3.9673809999999996,-5.882701,-0.862442,0.0,0.0,0.0,0.0
2610,-4.741127,6.076322,6.257535,-3.949271,-5.701606,-0.748459,0.0,0.0,0.0,0.0
2612,-5.042674,6.08585,6.200858,-3.9396839999999997,-5.5375559999999995,-0.620628,0.0,0.0,0.0,0.0
2615,-5.281998000000001,6.028698,6.130011,-3.937553,-5.393745,-0.476817,0.0,0.0,0.0,0.0
2616,0.0,0.0,0.0,0.0,0.0,0.0,41.788971000000004,-59.708466,-25.880699,0.0
2617,-5.439961,6.000125,6.0875010000000005,-3.9396980000000004,-5.276575,-0.324495,0.0,0.0,0.0,0.0
2620,-5.521337,5.909632,6.078053,-3.9492849999999997,-5.186026999999999,-0.167901,0.0,0.0,0.0,0.0
2622,-5.526129,5.88582,6.125282,-3.9524809999999997,-5.121047,-0.005981,0.0,0.0,0.0,0.0
2625,-5.463914,5.809615,6.101665000000001,-3.9524809999999997,-5.074175,0.15806900000000002,0.0,0.0,0.0,0.0
2626,0.0,0.0,0.0,0.0,0.0,0.0,40.577759,-57.678688,-31.047759999999997,0.0
2627,-5.291612000000001,5.738174,6.163064,-3.9524809999999997,-5.055,0.316793,0.0,0.0,0.0,0.0
2630,-5.052301,5.6905470000000005,6.205569000000001,-3.9514160000000005,-5.0528699999999995,0.47551800000000005,0.0,0.0,0.0,0.0
2632,-4.789059,5.652446,6.375597,-3.9460900000000003,-5.070979,0.6246550000000001,0.0,0.0,0.0,0.0
2635,-4.578466000000001,5.566715,6.5172870000000005,-3.937567,-5.101872,0.762074,0.0,0.0,0.0,0.0
2636,0.0,0.0,0.0,0.0,0.0,0.0,38.757560999999995,-57.27330799999999,-35.102119,0.0
2637,-4.224283,5.452408,6.710928999999999,-3.918393,-5.142352,0.88671,0.0,0.0,0.0,0.0
2640,-3.9083910000000004,5.261892,6.980141000000001,-3.9013480000000005,-5.192419999999999,1.0049540000000001,0.0,0.0,0.0,0.0
2642,-3.558995,5.123769,7.102938000000001,-3.8917610000000002,-5.247813,1.1125450000000001,0.0,0.0,0.0,0.0
2645,-3.104298,4.899913,7.258797,-3.884304,-5.309598,1.206289,0.0,0.0,0.0,0.0
2646,0.0,0.0,0.0,0.0,0.0,0.0,36.328159,-56.279648,-38.789082,0.0
2647,-2.553875,4.909441,7.452439999999999,-3.882174,-5.378841,1.282988,0.0,0.0,0.0,0.0
2649,-2.080034,4.866578,7.561068,-3.882174,-5.45341,1.3394469999999998,0.0,0.0,0.0,0.0
2652,-1.58226,4.723692,7.731095,-3.878978,-5.542892,1.371405,0.0,0.0,0.0,0.0
2654,-1.046196,4.666539,7.877509,-3.872586,-5.644092,1.391644,0.0,0.0,0.0,0.0
2656,0.0,0.0,0.0,0.0,0.0,0.0,33.18243,-54.481186,-43.336571,0.0
2657,-0.529277,4.5903339999999995,7.849169,-3.855542,-5.751684,1.3948399999999999,0.0,0.0,0.0,0.0
2659,-0.026717,4.533182,7.849168,-3.8299760000000003,-5.879516000000001,1.376731,0.0,0.0,0.0,0.0
2662,0.50456,4.604629,7.882227,-3.802279,-6.028653,1.343708,0.0,0.0,0.0,0.0
2664,0.95447,4.561765,7.962517999999999,-3.767125,-6.183115,1.300032,0.0,0.0,0.0,0.0
2666,0.0,0.0,0.0,0.0,0.0,0.0,30.095078000000004,-53.786986999999996,-47.828438,0.0
2667,1.399594,4.609397,8.066422,-3.7298410000000004,-6.336514,1.239312,0.0,0.0,0.0,0.0
2669,1.8016400000000001,4.547480999999999,8.278958,-3.692557,-6.486716,1.171135,0.0,0.0,0.0,0.0
2672,2.079242,4.590351,8.609569,-3.653142,-6.610287,1.097632,0.0,0.0,0.0,0.0
2674,2.265903,4.5903529999999995,8.836272,-3.617989,-6.708291,1.0177370000000001,0.0,0.0,0.0,0.0
2676,0.0,0.0,0.0,0.0,0.0,0.0,25.547417000000003,-51.721519,-51.251705,0.0
2677,2.428632,4.576067,9.081868,-3.580704,-6.778598,0.9410379999999999,0.0,0.0,0.0,0.0
2679,2.572216,4.557018,9.275511999999999,-3.551942,-6.815883,0.8675350000000001,0.0,0.0,0.0,0.0
2682,2.658363,4.576073,9.539999,-3.5285059999999997,-6.820144,0.7919010000000001,0.0,0.0,0.0,0.0
2684,2.5913470000000003,4.5760760000000005,9.856441,-3.498679,-6.78499,0.7237239999999999,0.0,0.0,0.0,0.0
2686,0.0,0.0,0.0,0.0,0.0,0.0,21.050943,-50.02964,-54.507027,0.0
2687,2.55305,4.518923,10.196498,-3.4624599999999996,-6.712553,0.660874,0.0,0.0,0.0,0.0
2689,2.509966,4.499873,10.550724,-3.4134580000000003,-6.6007,0.608676,0.0,0.0,0.0,0.0
2692,2.371155,4.476061,10.857719,-3.358064,-6.452628,0.571392,0.0,0.0,0.0,0.0
2694,2.170122,4.45225,11.211946000000001,-3.296279,-6.271533,0.546891,0.0,0.0,0.0,227.319916
2696,0.0,0.0,0.0,0.0,0.0,0.0,16.994867000000003,-47.820015000000005,-57.860512,0.0
2697,1.99302,4.395096,11.490602,-3.223841,-6.07233,0.537303,0.0,0.0,0.0,0.0
2699,1.806345,4.280787999999999,11.726753,-3.14075,-5.856081,0.536238,0.0,0.0,0.0,0.0
2702,1.562235,4.16648,11.995964,-3.048073,-5.6270489999999995,0.5532819999999999,0.0,0.0,0.0,0.0
2704,1.322911,4.147431,12.232115,-2.950068,-5.377778,0.5767180000000001,0.0,0.0,0.0,0.0
2706,0.0,0.0,0.0,0.0,0.0,0.0,13.159391000000001,-45.825722,-60.465545999999996,0.0
2707,1.107518,4.071226,12.425757,-2.840346,-5.112527,0.609741,0.0,0.0,0.0,0.0
2709,0.9639209999999999,3.8997629999999996,12.591063,-2.721037,-4.838755,0.658744,0.0,0.0,0.0,0.0
2712,0.767674,3.8187949999999997,12.718583,-2.598531,-4.566048,0.719464,0.0,0.0,0.0,0.0
2714,0.61929,3.7521160000000005,12.978348,-2.467504,-4.292275,0.792967,0.0,0.0,0.0,0.0
2716,0.0,0.0,0.0,0.0,0.0,0.0,9.905724000000001,-44.446220000000004,-62.046478,0.0
2717,0.513984,3.642571,13.134207,-2.326889,-4.015306,0.8717959999999999,0.0,0.0,0.0,0.0
2719,0.42782299999999995,3.5854190000000004,13.205051000000001,-2.176687,-3.748991,0.950626,0.0,0.0,0.0,0.0
2722,0.356021,3.4758730000000004,13.223942000000001,-2.02542,-3.492262,1.0379770000000001,0.0,0.0,0.0,0.0
2724,0.322509,3.3663279999999998,13.290063,-1.870957,-3.2483169999999997,1.1295899999999999,0.0,0.0,0.0,0.0
2726,0.0,0.0,0.0,0.0,0.0,0.0,6.558517,-42.522552000000005,-63.028965,0.0
2727,0.288998,3.294887,13.271168,-1.712232,-3.023547,1.2254639999999999,0.0,0.0,0.0,0.0
2729,0.308137,3.237734,13.318398,-1.5513780000000001,-2.804102,1.318142,0.0,0.0,0.0,0.0
2732,0.327275,3.14724,13.26172,-1.3851959999999999,-2.599572,1.41295,0.0,0.0,0.0,0.0
2734,0.31290999999999997,3.094851,13.143642999999999,-1.220081,-2.402498,1.5109540000000001,0.0,0.0,0.0,0.0
2736,0.0,0.0,0.0,0.0,0.0,0.0,4.298244,-41.582474,-64.737267,0.0
2737,0.336835,3.080564,13.044457000000001,-1.0539,-2.2086200000000002,1.610024,0.0,0.0,0.0,0.0
2739,0.44212700000000005,3.0091229999999998,12.902764999999999,-0.895175,-2.02433,1.7016369999999998,0.0,0.0,0.0,0.0
2742,0.528275,2.9805479999999998,12.831919000000001,-0.740712,-1.841105,1.79538,0.0,0.0,0.0,0.0
2744,0.643141,2.9567349999999997,12.813025,-0.579857,-1.653618,1.886993,0.0,0.0,0.0,0.0
2746,0.0,0.0,0.0,0.0,0.0,0.0,2.4703180000000002,-40.870079,-65.882988,0.0
2747,0.781938,2.951975,12.770516,-0.421133,-1.45761,1.9700830000000003,0.0,0.0,0.0,0.0
2749,0.959026,2.9376889999999998,12.666609,-0.26560500000000004,-1.264797,2.047848,0.0,0.0,0.0,0.0
2752,1.155259,2.899588,12.557977000000001,-0.113272,-1.071985,2.118155,0.0,0.0,0.0,0.0
2754,1.279698,2.9091169999999997,12.491854,0.035865,-0.878107,2.17994,0.0,0.0,0.0,0.0
2756,1.466358,2.899594,12.199023,0.182871,-0.6916859999999999,2.2406599999999997,0.45945,-39.802963,-65.789536,0.0
2759,1.624301,2.8519669999999997,11.934533,0.32029,-0.509526,2.2949889999999997,0.0,0.0,0.0,0.0
2761,1.844466,2.799577,11.717272,0.45344799999999996,-0.329497,2.3493169999999997,0.0,0.0,0.0,0.0
2764,2.016768,2.842446,11.490565,0.5748880000000001,-0.15266300000000002,2.399384,0.0,0.0,0.0,0.0
2766,2.1938560000000003,2.913893,11.202458,0.681415,0.015649,2.446256,-1.197985,-39.6689,-66.157845,0.0
2769,2.323081,2.932948,10.886014999999999,0.769831,0.178634,2.4846060000000003,0.0,0.0,0.0,0.0
2771,2.476237,2.985343,10.739599,0.8475959999999999,0.332032,2.518694,0.0,0.0,0.0,0.0
2774,2.58153,3.099657,10.664029,0.90512,0.482234,2.547456,0.0,0.0,0.0,0.0
2776,2.705969,3.204444,10.588459,0.939208,0.635632,2.558109,-2.028661,-40.341384999999995,-65.990494,0.0
2779,2.811261,3.275891,10.508166000000001,0.9615790000000001,0.797552,2.5634349999999997,0.0,0.0,0.0,0.0
2781,2.983563,3.3473379999999997,10.503441,0.982884,0.9616020000000001,2.56237,0.0,0.0,0.0,0.0
2784,3.213301,3.4616519999999995,10.338135000000001,0.9914059999999999,1.126718,2.54213,0.0,0.0,0.0,0.0
2786,3.37603,3.566439,10.172827,0.982884,1.282246,2.5091069999999998,-2.7037880000000003,-41.395111,-65.67083000000001,0.0
2789,3.5387589999999998,3.67599,10.00752,0.9658399999999999,1.431383,2.465431,0.0,0.0,0.0,0.0
2791,3.715847,3.8093559999999997,9.799705,0.960513,1.561345,2.414298,0.0,0.0,0.0,0.0
2794,3.82114,3.852225,9.634398,0.9551870000000001,1.6625450000000002,2.352513,0.0,0.0,0.0,0.0
2796,3.921647,3.95225,9.502151,0.957318,1.752027,2.283271,-3.1533130000000003,-41.921692,-65.10884899999999,0.0
2799,4.012580000000001,3.966542,9.464364999999999,0.9669049999999999,1.814878,2.211898,0.0,0.0,0.0,0.0
2801,4.046078,3.9951220000000003,9.487979,0.983949,1.86388,2.13733,0.0,0.0,0.0,0.0
