Timestamp, Accel x, Accel y, Accel z, Gyro x, Gyro y, Gyro z,Mag x,Mag y,Mag z,Light Intensity
0,-0.961428,6.525601,6.641765,,,,,,,
-4,,,,,,,,,,138.920715
2,-1.186387,6.554179,6.811794,,,,,,,
2,,,,-0.415619,0.551761,-0.236105,,,,
4,-1.310832,6.482735,6.830686,,,,,,,
7,-1.425706,6.354135,6.92987,,,,,,,
9,-1.535792,6.287455,7.066838,,,,,,,
9,,,,-0.390052,0.404755,-0.173255,,,,
12,-1.679383,6.258877,7.104621,,,,,,,
12,,,,-0.3794,0.396233,-0.161537,,,,
14,-1.803829,6.220774,7.104621,,,,,,,
14,,,,-0.363421,0.349361,-0.150884,,,,
17,-1.904343,6.220774,7.175467,,,,,,,
17,,,,-0.348507,0.298229,-0.132775,,,,
19,-1.923489,6.192196,7.251035,,,,,,,
19,,,,-0.333594,0.252422,-0.104013,,,,
21,,,,,,,30.934692,-70.845268,-52.400429,
22,-1.952208,6.158856,7.369111,,,,,,,
22,,,,-0.312288,0.209812,-0.081642,,,,
24,-1.956995,6.244589,7.392726,,,,,,,
24,,,,-0.292048,0.173593,-0.059271,,,,
27,-1.899559,6.258879,7.524971,,,,,,,
27,,,,-0.273939,0.139504,-0.03477,,,,
29,,,,-0.249438,0.113938,-0.017726,,,,
29,-1.875628,6.330323,7.643046,,,,,,,
31,,,,,,,31.207359,-69.958076,-52.032448,
32,-1.870842,6.363664,7.756399,,,,,,,
32,,,,-0.227067,0.099024,0.001449,,,,
34,-1.789475,6.382716,7.898089,,,,,,,
34,,,,-0.203631,0.087306,0.018493,,,,
37,-1.770331,6.520842,7.935874,,,,,,,
37,,,,-0.177,0.07985,0.031276,,,,
39,-1.688963,6.592286,7.954766,,,,,,,
39,,,,-0.151433,0.076654,0.047255,,,,
41,,,,,,,31.259708,-68.643723,-53.811081,
42,,,,-0.126932,0.075588,0.057908,,,,
42,-1.578878,6.63039,7.954766,,,,,,,
44,-1.593238,6.611339,7.865028,,,,,,,
44,,,,-0.101366,0.076654,0.06856,,,,
47,-1.497511,6.711361,7.784736,,,,,,,
47,,,,-0.070473,0.08198,0.079213,,,,
49,-1.406572,6.758991,7.770567,,,,,,,
49,,,,-0.045972,0.086241,0.0888,,,,
51,,,,,,,31.033016,-68.43428,-54.250313,
52,-1.363495,6.816147,7.737506,,,,,,,
52,,,,-0.025732,0.087306,0.097322,,,,
54,,,,-0.010819,0.095828,0.104779,,,,
54,-1.310846,6.82091,7.66666,,,,,,,
57,,,,0.008356,0.10222,0.111171,,,,
57,-1.205547,6.978087,7.586368,,,,,,,
59,-1.200761,6.978087,7.4494,,,,,,,
59,,,,0.019009,0.109677,0.115432,,,,
61,,,,,,,31.454552,-69.198479,-54.270554,
62,-1.12418,7.011429,7.425785,,,,,,,
62,,,,0.024335,0.115003,0.118628,,,,
64,-1.03324,7.011429,7.421062,,,,,,,
64,,,,0.031792,0.120329,0.117562,,,,
67,,,,0.036053,0.128852,0.116497,,,,
67,-0.971018,7.040007,7.378554,,,,,,,
69,-0.90401,7.087636,7.24631,,,,,,,
69,,,,0.039249,0.140569,0.112236,,,,
71,,,,,,,31.399712,-70.092117,-55.133621,
72,-0.86572,7.135267,7.222694,,,,,,,
72,,,,0.041379,0.144831,0.104779,,,,
74,,,,0.039249,0.152287,0.095192,,,,
74,-0.841789,7.101926,7.118787,,,,,,,
77,-0.827431,7.082874,7.047942,,,,,,,
77,,,,0.036053,0.159744,0.0888,,,,
79,-0.822645,7.125742,6.944035,,,,,,,
79,,,,0.033922,0.171462,0.074952,,,,
82,-0.822646,7.144794,6.934589,,,,,,,
82,,,,0.030727,0.181049,0.060038,,,,
81,,,,,,,31.754829,-70.497475,-54.548752,
84,-0.832219,7.159082,6.877912,,,,,,,
84,,,,0.0254,0.18531,0.049385,,,,
87,-0.846579,7.159083,6.821236,,,,,,,
87,,,,0.016878,0.189572,0.038733,,,,
89,-0.865725,7.192424,6.722052,,,,,,,
89,,,,0.007291,0.192767,0.02595,,,,
91,,,,,,,31.109379,-69.732712,-53.724197,
92,,,,-0.003362,0.201289,0.019558,,,,
92,-0.908803,7.244817,6.712606,,,,,,,
94,-0.908803,7.240054,6.660653,,,,,,,
94,,,,-0.011884,0.20555,0.011036,,,,
97,-0.937522,7.211477,6.594529,,,,,,,
97,,,,-0.022537,0.210877,0.004644,,,,
99,-0.947095,7.163847,6.64176,,,,,,,
99,,,,-0.039581,0.222595,0.000383,,,,
101,,,,,,,30.536152,-69.532745,-52.415817,
102,-0.975814,7.154322,6.660652,,,,,,,
102,,,,-0.05769,0.233247,-0.004943,,,,
104,,,,-0.071539,0.252422,-0.007073,,,,
104,-0.956669,7.211478,6.717328,,,,,,,
107,-0.951884,7.149559,6.811788,,,,,,,
107,,,,-0.087518,0.272662,-0.0124,,,,
109,-0.956671,7.120982,6.835403,,,,,,,
109,,,,-0.09817,0.298228,-0.016661,,,,
111,-0.947098,7.068589,6.807065,,,,,,,
111,,,,,,,30.89431,-69.935143,-51.98555,
111,,,,-0.110953,0.322729,-0.018791,,,,
114,-0.937527,7.035249,6.788173,,,,,,,
114,,,,-0.119476,0.348296,-0.028379,,,,
116,,,,-0.126932,0.36534,-0.029444,,,,
116,-0.990177,7.006672,6.750389,,,,,,,
119,-0.985391,6.949516,6.641759,,,,,,,
119,,,,-0.134389,0.377058,-0.031575,,,,
121,-1.004537,6.959043,6.618144,,,,,,,
121,,,,,,,31.305901,-69.759781,-53.137016,
121,,,,-0.146107,0.390906,-0.037966,,,,
124,-1.085906,6.911414,6.561467,,,,,,,
124,,,,-0.155695,0.389841,-0.043292,,,,
126,-1.047616,6.897125,6.452837,,,,,,,
126,,,,-0.164217,0.386645,-0.044358,,,,
129,,,,-0.178065,0.377058,-0.051815,,,,
129,-1.052403,6.897125,6.405607,,,,,,,
131,-1.033258,6.83997,6.249746,,,,,,,
131,,,,-0.190848,0.360014,-0.056076,,,,
131,,,,,,,31.824612,-69.800934,-53.060577,
134,-1.047618,6.920941,6.207239,,,,,,,
134,,,,-0.205762,0.340839,-0.056076,,,,
136,-1.061978,6.863785,6.169455,,,,,,,
136,,,,-0.222806,0.320599,-0.060337,,,,
139,-0.990183,6.868549,6.169455,,,,,,,
139,,,,-0.241981,0.293967,-0.068859,,,,
141,,,,-0.265417,0.268401,-0.076316,,,,
141,-1.023688,6.849497,6.051378,,,,,,,
141,,,,,,,32.024181,-69.825066,-52.628006,
144,-1.109843,6.844734,6.051378,,,,,,,
144,,,,,,,,,,169.380173
144,,,,-0.287787,0.242834,-0.084838,,,,
146,-1.081126,6.859024,6.08444,,,,,,,
146,,,,-0.312288,0.207681,-0.09336,,,,
149,-1.095485,6.86855,6.046655,,,,,,,
149,,,,-0.343181,0.174658,-0.101882,,,,
151,-1.124204,6.920943,6.122223,,,,,,,
151,,,,,,,32.188862,-70.197449,-52.939529,
151,,,,-0.376204,0.1427,-0.1136,,,,
154,,,,-0.406032,0.111807,-0.126383,,,,
154,-1.14335,6.897128,6.103331,,,,,,,
156,-1.172069,6.930469,6.254468,,,,,,,
156,,,,-0.437989,0.077719,-0.138101,,,,
159,-1.234292,6.935232,6.344205,,,,,,,
159,,,,-0.463556,0.053218,-0.147688,,,,
161,-1.301302,6.911417,6.391436,,,,,,,
161,,,,,,,32.713657,-70.232712,-53.17231,
161,,,,-0.491253,0.030847,-0.150884,,,,
164,-1.373098,6.916181,6.424497,,,,,,,
164,,,,-0.51895,0.002085,-0.155145,,,,
166,,,,-0.538124,-0.020286,-0.160471,,,,
166,-1.464039,6.93047,6.556742,,,,,,,
169,-1.516689,6.887603,6.722047,,,,,,,
169,,,,-0.554103,-0.036265,-0.159406,,,,
171,-1.598058,6.863789,6.825954,,,,,,,
171,,,,,,,32.874207,-69.871475,-53.526123,
171,,,,-0.564756,-0.05757,-0.157276,,,,
174,-1.636349,6.759004,6.825953,,,,,,,
174,,,,-0.576474,-0.070353,-0.15408,,,,
176,-1.665068,6.720901,6.887353,,,,,,,
176,,,,-0.582865,-0.084202,-0.146623,,,,
179,,,,-0.591387,-0.10018,-0.139166,,,,
179,-1.751223,6.663746,6.962922,,,,,,,
181,-1.736865,6.658983,7.104612,,,,,,,
181,,,,,,,32.450714,-69.846794,-53.154373,
181,,,,-0.593518,-0.114029,-0.132775,,,,
184,-1.746438,6.635169,7.156566,,,,,,,
184,,,,-0.593518,-0.136399,-0.119991,,,,
186,,,,-0.592453,-0.154509,-0.106143,,,,
186,-1.775157,6.649457,7.213242,,,,,,,
189,-1.803876,6.578013,7.284087,,,,,,,
189,,,,-0.586061,-0.168357,-0.096556,,,,
191,,,,,,,31.979073,-69.445587,-53.105171,
191,,,,-0.57967,-0.177945,-0.082707,,,,
191,-1.856526,6.558962,7.392716,,,,,,,
194,-1.899604,6.58754,7.506069,,,,,,,
194,,,,-0.572213,-0.17901,-0.067793,,,,
196,-1.91875,6.520859,7.534407,,,,,,,
196,,,,-0.564756,-0.181141,-0.048619,,,,
199,-1.899605,6.563725,7.572191,,,,,,,
199,,,,-0.549842,-0.17688,-0.03477,,,,
201,,,,,,,32.091469,-68.707809,-53.781532,
201,-1.918751,6.56849,7.704436,,,,,,,
201,,,,-0.537059,-0.170488,-0.015596,,,,
204,,,,-0.523211,-0.155574,0.00571,,,,
204,-1.957043,6.535149,7.732774,,,,,,,
206,,,,-0.507232,-0.1364,0.02808,,,,
206,-1.947471,6.525623,7.883911,,,,,,,
209,-1.918753,6.47323,7.831957,,,,,,,
209,,,,-0.493383,-0.11829,0.04832,,,,
211,-1.913968,6.511334,7.831957,,,,,,,
211,,,,-0.479535,-0.09592,0.071756,,,,
211,,,,,,,32.753826,-68.930145,-54.332497,
214,-1.842173,6.525623,7.817788,,,,,,,
214,,,,-0.464621,-0.071419,0.091996,,,,
216,,,,-0.449707,-0.044787,0.115432,,,,
216,-1.827815,6.492283,7.77528,,,,,,,
218,-1.732088,6.497046,7.643036,,,,,,,
218,,,,-0.437989,-0.026677,0.137802,,,,
221,-1.722517,6.482758,7.609974,,,,,,,
221,,,,,,,32.918499,-69.302536,-54.64402,
221,,,,-0.428402,-0.012829,0.154847,,,,
223,,,,-0.422011,-0.002176,0.176152,,,,
223,-1.62679,6.444654,7.543852,,,,,,,
226,,,,-0.418815,0.011672,0.195327,,,,
226,-1.607645,6.497047,7.449391,,,,,,,
228,,,,-0.413488,0.011672,0.21024,,,,
228,-1.526278,6.439892,7.383268,,,,,,,
231,-1.483202,6.458944,7.26047,,,,,,,
231,,,,-0.414554,0.011672,0.223024,,,,
231,,,,,,,32.256149,-69.0802,-54.093056,
233,-1.425766,6.454182,7.203793,,,,,,,
233,,,,-0.420945,0.014868,0.240068,,,,
236,-1.363544,6.468471,7.213239,,,,,,,
236,,,,-0.429467,0.012737,0.253916,,,,
238,-1.272604,6.468471,7.099886,,,,,,,
238,,,,-0.44012,0.007411,0.263504,,,,
241,,,,-0.455034,0.00315,0.276287,,,,
241,-1.205596,6.444656,6.98181,,,,,,,
240,,,,,,,31.811626,-68.864304,-54.037186,
243,-1.081152,6.458945,6.892072,,,,,,,
243,,,,-0.475274,-0.007503,0.2912,,,,
246,-1.085939,6.425605,6.802335,,,,,,,
246,,,,-0.50084,-0.027743,0.299722,,,,
248,,,,-0.527472,-0.051179,0.305049,,,,
248,-0.999785,6.458946,6.637029,,,,,,,
251,-0.870554,6.482761,6.575629,,,,,,,
250,,,,,,,31.698414,-68.653671,-54.955879,
251,,,,-0.56156,-0.07781,0.30931,,,,
253,,,,-0.600975,-0.108703,0.31144,,,,
253,-0.74611,6.458946,6.476445,,,,,,,
256,-0.664743,6.535154,6.381985,,,,,,,
256,,,,-0.641455,-0.151313,0.306114,,,,
258,-0.640812,6.558969,6.353646,,,,,,,
258,,,,-0.681935,-0.196055,0.297592,,,,
261,-0.569017,6.539917,6.273355,,,,,,,
261,,,,-0.727741,-0.243991,0.2912,,,,
260,,,,,,,31.71059,-68.641884,-55.574318,
263,-0.502009,6.563733,6.287524,,,,,,,
263,,,,-0.776743,-0.294059,0.282678,,,,
266,,,,-0.827876,-0.350518,0.267765,,,,
266,-0.425428,6.587548,6.197786,,,,,,,
268,-0.415856,6.520867,6.131663,,,,,,,
268,,,,-0.880074,-0.414434,0.258177,,,,
271,-0.401498,6.497052,6.07971,,,,,,,
270,,,,,,,31.178898,-67.664093,-56.627388,
271,,,,-0.935468,-0.479415,0.244329,,,,
273,-0.296199,6.454186,6.01831,,,,,,,
273,,,,-0.994057,-0.557179,0.233676,,,,
276,-0.248336,6.425608,5.947464,,,,,,,
276,,,,-1.053712,-0.636008,0.223024,,,,
278,,,,-1.117628,-0.720164,0.21024,,,,
278,-0.186114,6.349401,5.829388,,,,,,,
281,,,,-1.18687,-0.809646,0.195327,,,,
280,,,,,,,30.793621,-67.076378,-57.064308,
281,-0.138251,6.292246,5.782158,,,,,,,
283,-0.066456,6.244617,5.720759,,,,,,,
283,,,,-1.257177,-0.902324,0.184674,,,,
286,,,,-1.331746,-1.000329,0.16763,,,,
286,-0.037739,6.16841,5.711312,,,,,,,
288,0.053201,6.158884,5.574345,,,,,,,
288,,,,-1.410575,-1.10579,0.148455,,,,
291,,,,-1.49047,-1.208055,0.12715,,,,
290,,,,,,,30.927319,-66.317978,-58.822945,
291,0.096277,6.120781,5.479884,,,,,,,
293,0.110636,6.116018,5.371253,,,,,,,
295,,,,,,,,,,224.543015
293,,,,-1.581017,-1.309255,0.110106,,,,
296,0.172858,6.058863,5.361807,,,,,,,
296,,,,-1.676891,-1.415781,0.090931,,,,
298,0.22072,6.030286,5.281516,,,,,,,
298,,,,-1.769569,-1.524438,0.071756,,,,
301,0.282942,5.992182,5.248454,,,,,,,
301,,,,-1.868639,-1.640552,0.045125,,,,
300,,,,,,,30.190239,-65.110123,-61.397507,
303,0.235078,5.968368,5.281516,,,,,,,
303,,,,-1.966643,-1.756666,0.023819,,,,
306,0.163282,5.892161,5.442099,,,,,,,
306,,,,-2.058255,-1.878106,0.004645,,,,
308,0.072341,5.768324,5.673527,,,,,,,
308,,,,-2.145607,-1.995285,-0.011334,,,,
311,-0.047318,5.61591,5.961632,,,,,,,
311,,,,-2.225502,-2.114594,-0.029444,,,,
310,,,,,,,28.717434,-64.80307,-61.958359,
313,-0.109542,5.48731,6.159999,,,,,,,
313,,,,-2.29794,-2.223251,-0.040097,,,,
316,-0.157406,5.320607,6.433935,,,,,,,
316,,,,-2.357594,-2.329778,-0.050749,,,,
318,-0.171765,5.125327,6.679532,,,,,,,
318,,,,-2.414053,-2.430978,-0.056075,,,,
320,,,,,,,27.903938,-64.721306,-62.915573,
321,-0.171766,5.006253,6.925129,,,,,,,
323,-0.205271,4.915757,7.142389,,,,,,,
321,,,,-2.46199,-2.52046,-0.061402,,,,
323,,,,-2.501405,-2.592898,-0.060337,,,,
325,-0.253135,4.720476,7.302972,,,,,,,
325,,,,-2.535493,-2.655748,-0.058206,,,,
328,,,,-2.557864,-2.713273,-0.049684,,,,
328,-0.233991,4.625217,7.496615,,,,,,,
330,-0.262709,4.501381,7.746936,,,,,,,
330,,,,-2.574908,-2.758013,-0.039031,,,,
330,,,,,,,27.067234,-62.97517,-64.582466,
333,-0.243565,4.429937,8.035041,,,,,,,
333,,,,-2.58343,-2.789971,-0.024118,,,,
335,-0.190915,4.339441,8.247578,,,,,,,
335,,,,-2.582365,-2.80595,-0.006008,,,,
338,-0.190916,4.158449,8.342038,,,,,,,
338,,,,-2.575973,-2.809146,0.020623,,,,
340,,,,-2.570647,-2.788906,0.049386,,,,
340,,,,,,,25.66367,-60.81134,-66.648354,
340,-0.20049,4.225131,8.904078,,,,,,,
343,-0.114336,4.377545,9.220521,,,,,,,
343,,,,-2.548276,-2.737774,0.072821,,,,
345,0.038827,4.429938,9.418888,,,,,,,
345,,,,-2.513123,-2.669597,0.090931,,,,
348,0.091476,4.44899,9.664486,,,,,,,
348,,,,-2.466251,-2.585441,0.100518,,,,
350,0.129766,4.458516,9.886468,,,,,,,
350,,,,-2.415118,-2.485306,0.115432,,,,
350,,,,,,,24.318481,-59.751785,-68.65863,
353,,,,-2.361855,-2.374519,0.134607,,,,
353,0.249424,4.506146,10.070667,,,,,,,
355,0.340364,4.54425,10.132067,,,,,,,
355,,,,-2.301136,-2.258405,0.143129,,,,
358,0.416945,4.51091,10.184018,,,,,,,
358,,,,-2.240416,-2.1359,0.154847,,,,
360,0.570107,4.496621,10.221802,,,,,,,
360,,,,,,,22.967194,-58.698124,-70.35968,
360,,,,-2.180761,-2.009133,0.165499,,,,
363,0.704124,4.54425,10.179295,,,,,,,
363,,,,-2.118976,-1.882367,0.170826,,,,
365,,,,-2.064647,-1.764123,0.171891,,,,
365,0.838141,4.54425,10.103726,,,,,,,
368,0.919509,4.55854,9.962036,,,,,,,
368,,,,-2.013515,-1.651205,0.170826,,,,
370,1.048739,4.591881,9.829791,,,,,,,
370,,,,-1.969839,-1.537222,0.171891,,,,
370,,,,,,,21.666023,-57.281467,-72.089691,
373,,,,-1.932554,-1.434956,0.16763,,,,
373,1.211474,4.582355,9.683376,,,,,,,
375,1.302414,4.6538,9.621977,,,,,,,
375,,,,-1.904857,-1.334822,0.160173,,,,
378,,,,-1.885683,-1.240013,0.145259,,,,
378,1.402927,4.777637,9.522793,,,,,,,
380,,,,-1.868639,-1.147335,0.125019,,,,
380,1.517799,4.768111,9.395271,,,,,,,
380,,,,,,,20.698936,-56.078949,-73.550713,
383,1.608739,4.730008,9.343318,,,,,,,
383,,,,-1.863312,-1.070636,0.098388,,,,
385,,,,-1.867573,-0.998199,0.067495,,,,
385,1.718824,4.768112,9.263026,,,,,,,
388,,,,-1.876095,-0.936413,0.035537,,,,
388,1.848055,4.71572,9.069383,,,,,,,
390,,,,-1.889944,-0.884215,-0.006008,,,,
390,1.895918,4.658565,8.960752,,,,,,,
390,,,,,,,19.875221,-55.269444,-74.240997,
393,1.948567,4.687142,8.904075,,,,,,,
393,,,,-1.908053,-0.838409,-0.048619,,,,
395,2.006002,4.663328,8.837953,,,,,,,
395,,,,-1.93575,-0.794733,-0.09549,,,,
398,2.068224,4.610936,8.771831,,,,,,,
398,,,,-1.965577,-0.756384,-0.146623,,,,
400,2.029933,4.572833,8.800168,,,,,,,
400,,,,-2.001796,-0.728687,-0.203082,,,,
400,,,,,,,19.813808,-54.168114,-74.142006,
403,,,,-2.043342,-0.705251,-0.25741,,,,
403,1.95335,4.477573,8.743492,,,,,,,
405,1.862409,4.4871,8.795445,,,,,,,
405,,,,-2.090214,-0.683946,-0.312804,,,,
408,1.714032,4.387078,8.833229,,,,,,,
408,,,,-2.13815,-0.676489,-0.366067,,,,
410,1.627877,4.191797,8.663199,,,,,,,
410,,,,,,,19.532066,-52.639614,-76.189621,
410,,,,-2.191413,-0.678619,-0.415069,,,,
413,1.503431,4.067961,8.559293,,,,,,,
413,,,,-2.254264,-0.697794,-0.455549,,,,
415,,,,-2.316049,-0.727622,-0.494964,,,,
415,1.374199,4.048909,8.951304,,,,,,,
418,1.29283,3.896495,9.111888,,,,,,,
418,,,,-2.359725,-0.756384,-0.541836,,,,
420,1.173171,3.720266,9.173287,,,,,,,
420,,,,-2.392748,-0.786211,-0.586577,,,,
420,,,,,,,19.052441,-50.559307,-77.623154,
423,1.091802,3.563089,9.376377,,,,,,,
423,,,,-2.418315,-0.824561,-0.631318,,,,
425,0.967357,3.401149,9.541682,,,,,,,
425,,,,-2.432163,-0.869302,-0.668602,,,,
428,0.862056,3.220157,9.532236,,,,,,,
428,,,,-2.434294,-0.920434,-0.70056,,,,
430,0.818979,3.020113,9.683373,,,,,,,
430,,,,-2.431098,-0.983285,-0.730387,,,,
430,,,,,,,18.737217,-49.063217,-77.970062,
432,0.804619,2.786728,9.80145,,,,,,,
432,,,,-2.416184,-1.039744,-0.755954,,,,
435,0.790259,2.658129,9.966756,,,,,,,
435,,,,-2.393814,-1.093007,-0.775128,,,,
437,,,,-2.366117,-1.145205,-0.791107,,,,
437,0.833336,2.543818,10.080108,,,,,,,
440,,,,-2.328832,-1.181424,-0.806021,,,,
440,,,,,,,18.320961,-47.344711,-79.854095,
440,0.890771,2.429507,10.297367,,,,,,,
442,0.94342,2.386641,10.519348,,,,,,,
442,,,,-2.285157,-1.20699,-0.822,,,,
444,,,,,,,,,,321.921204
445,1.024788,2.343775,10.679933,,,,,,,
445,,,,-2.240416,-1.215513,-0.833718,,,,
447,1.063078,2.377116,10.897191,,,,,,,
447,,,,-2.180761,-1.20486,-0.847566,,,,
450,,,,-2.118976,-1.16651,-0.859284,,,,
450,1.16359,2.462849,11.043605,,,,,,,
450,,,,,,,18.102318,-46.389847,-80.954056,
452,,,,-2.052929,-1.114312,-0.873133,,,,
452,1.206667,2.54382,11.100282,,,,,,,
455,1.240171,2.691472,11.199466,,,,,,,
455,,,,-1.984752,-1.047201,-0.88485,,,,
457,,,,-1.91338,-0.958784,-0.899764,,,,
457,1.283247,2.767679,11.275034,,,,,,,
460,1.316751,2.829598,11.279756,,,,,,,
460,,,,,,,17.787094,-44.893757,-81.300964,
460,,,,-1.839877,-0.847997,-0.908286,,,,
462,1.326323,2.901042,11.326986,,,,,,,
462,,,,-1.769569,-0.728687,-0.924265,,,,
465,,,,-1.702458,-0.588072,-0.931722,,,,
465,1.412476,2.924857,11.416723,,,,,,,
467,1.474698,3.001065,11.42617,,,,,,,
467,,,,-1.634281,-0.429348,-0.942375,,,,
470,1.493843,3.043931,11.360047,,,,,,,
470,,,,-1.565039,-0.259971,-0.957288,,,,
470,,,,,,,17.423717,-43.021137,-81.970421,
472,1.493842,3.029643,11.237248,,,,,,,
472,,,,-1.495796,-0.084203,-0.971137,,,,
475,,,,-1.430815,0.103284,-0.987116,,,,
475,1.455551,3.139191,11.19474,,,,,,,
477,,,,-1.366899,0.300357,-1.005225,,,,
477,1.445978,3.186821,11.19474,,,,,,,
480,1.398113,3.182058,11.175848,,,,,,,
480,,,,-1.30831,0.49317,-1.022269,,,,
480,,,,,,,17.660408,-41.74564,-82.543427,
482,1.254522,3.253503,11.08611,,,,,,,
482,,,,-1.24972,0.685983,-1.032922,,,,
485,1.130077,3.291607,11.123895,,,,,,,
485,,,,-1.201784,0.878796,-1.045705,,,,
487,,,,-1.159173,1.055629,-1.054227,,,,
487,0.919477,3.258267,11.190017,,,,,,,
490,0.675372,3.220163,11.227801,,,,,,,
490,,,,-1.120824,1.217549,-1.053162,,,,
490,,,,,,,18.937565,-40.549507,-83.118164,
492,0.325968,3.196349,11.515906,,,,,,,
492,,,,-1.090996,1.360295,-1.04464,,,,
495,0.034,3.086801,11.766227,,,,,,,
495,,,,-1.056908,1.496648,-1.023335,,,,
497,-0.257968,2.862942,12.106285,,,,,,,
497,,,,-1.020689,1.613827,-0.992442,,,,
500,-0.473354,2.634321,12.446342,,,,,,,
500,,,,,,,20.110374,-39.345734,-83.677261,
500,,,,-0.980209,1.716093,-0.953027,,,,
502,,,,-0.926946,1.815162,-0.910417,,,,
502,-0.640877,2.500958,12.635263,,,,,,,
505,-0.693527,2.272337,12.814739,,,,,,,
505,,,,-0.859834,1.897187,-0.866741,,,,
507,-0.813187,2.048478,12.899755,,,,,,,
507,,,,-0.779939,1.961103,-0.826261,,,,
510,-0.899342,1.843671,13.09812,,,,,,,
510,,,,-0.686196,2.012236,-0.790042,,,,
510,,,,,,,21.005016,-37.770775,-83.445374,
512,-0.88977,1.624576,13.244534,,,,,,,
512,,,,-0.580735,2.061238,-0.758084,,,,
515,,,,-0.461425,2.101718,-0.731452,,,,
515,-0.918488,1.519791,13.475963,,,,,,,
517,-0.90413,1.424532,13.598762,,,,,,,
517,,,,-0.329333,2.139002,-0.706951,,,,
520,,,,-0.192979,2.183743,-0.683516,,,,
520,-0.932849,1.300696,13.76879,,,,,,,
520,,,,,,,23.013439,-37.576553,-82.534485,
522,-0.937636,1.334037,13.915204,,,,,,,
522,,,,-0.047038,2.248724,-0.665406,,,,
525,-0.93285,1.319748,14.028558,,,,,,,
525,,,,0.098903,2.328619,-0.64197,,,,
527,,,,0.24804,2.425558,-0.625991,,,,
527,-0.870628,1.391193,14.208032,,,,,,,
530,,,,0.396112,2.550194,-0.605751,,,,
530,-0.822765,1.448349,14.387507,,,,,,,
530,,,,,,,25.086319,-38.480724,-81.87719,
532,,,,0.539922,2.705722,-0.580185,,,,
532,-0.76533,1.476926,14.505583,,,,,,,
535,-0.664817,1.576949,14.656719,,,,,,,
535,,,,0.682668,2.886817,-0.557814,,,,
537,,,,0.820087,3.087087,-0.529052,,,,
537,-0.540373,1.700786,14.713396,,,,,,,
539,,,,0.951114,3.306531,-0.501355,,,,
539,-0.435074,1.834149,14.685058,,,,,,,
540,,,,,,,27.03577,-38.446514,-81.871658,
542,,,,1.07788,3.539824,-0.473659,,,,
542,-0.277125,1.934171,14.727565,,,,,,,
544,-0.123962,2.067534,14.689779,,,,,,,
544,,,,1.209973,3.790161,-0.453419,,,,
547,-0.018664,2.253289,14.694503,,,,,,,
547,,,,1.336739,4.039432,-0.431048,,,,
549,0.029199,2.448571,14.614211,,,,,,,
549,,,,1.459245,4.290834,-0.408678,,,,
550,,,,,,,29.813942,-38.479332,-81.681969,
552,0.096207,2.572408,14.562258,,,,,,,
552,,,,1.58388,4.548628,-0.387372,,,,
554,0.177575,2.691482,14.543365,,,,,,,
554,,,,1.709582,4.811748,-0.359675,,,,
557,,,,1.832087,5.071672,-0.339435,,,,
557,0.124924,2.739112,14.496135,,,,,,,
559,0.000479,2.701009,14.330829,,,,,,,
559,,,,1.958853,5.333727,-0.316,,,,
560,,,,,,,33.248108,-38.952213,-80.335869,
562,,,,2.078163,5.580868,-0.282977,,,,
562,-0.052172,2.734349,14.156076,,,,,,,
564,,,,2.18895,5.817357,-0.247823,,,,
564,-0.133541,2.743876,13.94354,,,,,,,
567,,,,2.295476,6.033606,-0.206278,,,,
567,-0.324995,2.70101,13.721557,,,,,,,
569,,,,2.398807,6.218961,-0.165797,,,,
569,-0.497304,2.758165,13.546805,,,,,,,
570,,,,,,,37.148914,-40.568779,-78.532845,
572,-0.593032,2.753402,13.471236,,,,,,,
572,,,,2.49255,6.384077,-0.118926,,,,
574,-0.746196,2.710536,13.310654,,,,,,,
574,,,,2.587359,6.521496,-0.072054,,,,
577,,,,2.681102,6.642936,-0.021987,,,,
577,-0.947223,2.70101,13.2587,,,,,,,
579,-1.119532,2.615278,13.348436,,,,,,,
579,,,,2.776976,6.747332,0.038733,,,,
580,,,,,,,41.02673,-42.733658,-76.694199,
582,-1.291842,2.581937,13.400391,,,,,,,
582,,,,2.87498,6.84214,0.095192,,,,
584,-1.454578,2.472389,13.452343,,,,,,,
584,,,,2.977245,6.932688,0.144194,,,,
587,,,,3.091228,7.016844,0.198523,,,,
587,-1.612528,2.396183,13.509021,,,,,,,
589,,,,3.212668,7.090347,0.254982,,,,
589,-1.79441,2.334265,13.405114,,,,,,,
590,,,,,,,44.410229,-43.99321,-72.52282,
592,,,,3.336239,7.145741,0.305049,,,,
592,-1.976292,2.210428,13.263422,,,,,,,
594,-2.148601,2.153273,13.069778,,,,,,,
594,,,,,,,,,,487.839661
594,,,,3.472593,7.185155,0.354051,,,,
597,,,,3.611077,7.213917,0.407314,,,,
597,-2.253901,2.10088,12.77695,,,,,,,
599,,,,3.74317,7.220309,0.456316,,,,
599,-2.407065,2.005621,12.408553,,,,,,,
600,,,,,,,47.991344,-46.016399,-67.567375,
602,-2.507579,1.977044,12.007095,,,,,,,
602,,,,3.871001,7.20646,0.508514,,,,
604,-2.56023,1.962756,11.567853,,,,,,,
604,,,,3.98605,7.174502,0.55219,,,,
607,-2.708607,2.000859,11.010535,,,,,,,
607,,,,4.08725,7.127631,0.593735,,,,
609,,,,4.174602,7.065845,0.637411,,,,
609,-2.828266,1.95323,10.453218,,,,,,,
610,,,,,,,51.73518,-49.151512,-62.57193,
612,-2.943139,2.043726,9.966745,,,,,,,
612,,,,4.236387,6.989147,0.675761,,,,
614,,,,4.280063,6.893273,0.716241,,,,
614,-3.062799,2.205667,9.385813,,,,,,,
617,-3.15374,2.362845,8.875725,,,,,,,
617,,,,4.305629,6.785681,0.755656,,,,
619,-3.326049,2.662911,8.455375,,,,,,,
619,,,,4.30989,6.668502,0.785483,,,,
620,,,,,,,54.347786,-51.871967,-55.73278,
622,-3.479213,2.872481,8.086979,,,,,,,
622,,,,4.307759,6.544932,0.816376,,,,
624,-3.5893,3.043948,7.841381,,,,,,,
624,,,,4.296041,6.413905,0.845138,,,,
627,,,,4.272605,6.287138,0.870704,,,,
627,-3.718532,3.234467,7.671351,,,,,,,
629,-3.833405,3.339252,7.463538,,,,,,,
629,,,,4.247039,6.165698,0.901597,,,,
630,,,,,,,56.325432,-54.343567,-49.734161,
632,-3.909987,3.486903,7.236833,,,,,,,
632,,,,4.218277,6.057041,0.930359,,,,
634,-4.000928,3.525007,7.071526,,,,,,,
634,,,,4.185254,5.95158,0.961251,,,,
637,-4.005715,3.648845,6.991234,,,,,,,
637,,,,4.153296,5.851445,0.991079,,,,
639,,,,4.120273,5.761963,1.019841,,,,
639,-4.077511,3.75363,6.896774,,,,,,,
640,,,,,,,57.975082,-56.595135,-44.313751,
642,-4.125375,3.872704,6.693683,,,,,,,
642,,,,4.088315,5.676742,1.048603,,,,
644,-4.192385,4.077511,6.566161,,,,,,,
644,,,,4.061684,5.597913,1.077365,,,,
646,-4.292899,4.2204,6.358348,,,,,,,
646,,,,4.033987,5.522279,1.09867,,,,
649,-4.38384,4.306133,6.164703,,,,,,,
649,,,,4.004159,5.439188,1.123171,,,,
650,,,,,,,58.622475,-58.204281,-39.700294,
651,-4.469995,4.363289,6.093858,,,,,,,
651,,,,3.969006,5.359293,1.151934,,,,
654,-4.541791,4.453785,5.947443,,,,,,,
654,,,,3.931721,5.28792,1.181761,,,,
656,-4.623159,4.591912,5.843537,,,,,,,
656,,,,3.889111,5.218678,1.211588,,,,
659,-4.627946,4.587149,5.909658,,,,,,,
659,,,,3.842239,5.167546,1.23822,,,,
660,,,,,,,58.971764,-59.987606,-34.414833,
661,,,,3.80389,5.14624,1.266982,,,,
661,-4.580084,4.610964,6.027735,,,,,,,
664,,,,3.767671,5.152632,1.288287,,,,
664,-4.565725,4.625254,6.263886,,,,,,,
666,-4.537008,4.62049,6.377239,,,,,,,
666,,,,3.741039,5.178198,1.306397,,,,
669,-4.541795,4.744328,6.523653,,,,,,,
669,,,,3.72506,5.217613,1.324506,,,,
670,,,,,,,59.260719,-61.406181,-28.833483,
671,,,,3.714407,5.262354,1.334094,,,,
671,-4.613591,4.891979,6.646451,,,,,,,
674,,,,3.716538,5.313487,1.351138,,,,
674,-4.709319,4.930083,6.712574,,,,,,,
676,,,,3.732517,5.364619,1.374574,,,,
676,-4.766755,4.97295,6.797588,,,,,,,
679,-4.781115,4.982476,6.807034,,,,,,,
679,,,,3.757018,5.417882,1.405466,,,,
680,,,,,,,59.436478,-62.61412,-24.170826,
681,-4.824193,4.987239,6.736188,,,,,,,
681,,,,3.782584,5.469015,1.441685,,,,
684,-4.824193,4.953899,6.632281,,,,,,,
684,,,,3.817738,5.50843,1.485361,,,,
686,-4.872058,4.85864,6.433914,,,,,,,
686,,,,3.858218,5.544649,1.534363,,,,
689,,,,3.892307,5.578737,1.586561,,,,
689,-4.881631,4.839589,6.325284,,,,,,,
690,,,,,,,59.110428,-63.238472,-19.31102,
691,,,,3.932786,5.597912,1.637694,,,,
691,-4.89599,4.791959,6.112748,,,,,,,
694,,,,3.969006,5.605369,1.689892,,,,
694,-4.939068,4.758619,5.86715,,,,,,,
696,-5.010865,4.768145,5.593214,,,,,,,
696,,,,4.003094,5.601108,1.74422,,,,
699,-5.101806,4.801486,5.352339,,,,,,,
699,,,,4.031856,5.577672,1.800679,,,,
700,,,,,,,58.343971,-64.380577,-14.353056,
701,-5.135311,4.796723,5.02645,,,,,,,
701,,,,4.059553,5.539322,1.855008,,,,
704,,,,4.077662,5.483929,1.910401,,,,
704,-5.187961,4.825302,4.629715,,,,,,,
706,,,,4.094707,5.401904,1.970056,,,,
706,-5.202321,4.88722,4.100735,,,,,,,
709,-5.264544,4.839591,3.557587,,,,,,,
709,,,,4.105359,5.294312,2.029711,,,,
710,,,,,,,57.129959,-65.309731,-9.184616,
711,-5.374631,4.77291,2.872747,,,,,,,
711,,,,4.097902,5.154762,2.087235,,,,
714,,,,4.078728,4.987516,2.145824,,,,
714,-5.503863,4.801488,2.272922,,,,,,,
716,-5.61395,4.82054,1.795896,,,,,,,
716,,,,4.049965,4.790442,2.202283,,,,
719,,,,4.007355,4.57952,2.256612,,,,
719,-5.757541,4.849118,1.25747,,,,,,,
720,,,,,,,55.078102,-66.180695,-3.736504,
721,-5.915491,4.877696,0.813505,,,,,,,
721,,,,3.955157,4.348358,2.300288,,,,
724,-6.035151,4.94914,0.341202,,,,,,,
724,,,,3.892307,4.090564,2.345029,,,,
726,,,,3.82413,3.826379,2.383378,,,,
726,-6.178741,5.025348,-0.03664,,,,,,,
729,,,,3.748496,3.561128,2.420662,,,,
729,-6.274469,5.030111,-0.405037,,,,,,,
730,,,,,,,52.826668,-67.027527,1.279044,
731,,,,3.66434,3.289486,2.456882,,,,
731,-6.341478,5.063452,-0.716757,,,,,,,
734,-6.355838,5.068215,-0.948186,,,,,,,
734,,,,3.575923,3.016778,2.492035,,,,
736,-6.298403,5.049164,-1.335474,,,,,,,
736,,,,3.477919,2.750463,2.529319,,,,
739,-6.226608,5.192052,-1.628303,,,,,,,
739,,,,3.378849,2.482016,2.566604,,,,
740,,,,,,,50.569424,-67.668419,5.205658,
741,,,,3.273388,2.2157,2.598562,,,,
741,-6.169172,5.258734,-1.977807,,,,,,,
744,-6.044729,5.373045,-2.374542,,,,,,,
744,,,,,,,,,,121.550957
744,,,,3.162601,1.941928,2.633715,,,,
746,-5.929857,5.496882,-2.615417,,,,,,,
746,,,,3.046487,1.668155,2.658216,,,,
749,-5.757549,5.654059,-2.705154,,,,,,,
749,,,,2.930373,1.402904,2.681652,,,,
750,,,,,,,48.811214,-68.684006,7.691582,
751,-5.575668,5.816001,-2.809061,,,,,,,
751,,,,2.818521,1.149372,2.6955,,,,
753,,,,2.706668,0.910752,2.705088,,,,
753,-5.35071,6.011282,-2.917691,,,,,,,
756,-5.111393,6.101779,-2.889353,,,,,,,
756,,,,2.596946,0.684917,2.707218,,,,
758,-4.843359,6.225616,-2.922414,,,,,,,
758,,,,2.484028,0.47506,2.692305,,,,
760,,,,,,,47.135242,-68.779449,9.64908,
761,-4.537034,6.325638,-2.889353,,,,,,,
761,,,,2.377501,0.283312,2.671,,,,
763,-4.326435,6.425661,-2.922415,,,,,,,
763,,,,2.273106,0.106478,2.641172,,,,
766,,,,2.166579,-0.053311,2.607084,,,,
766,-4.039255,6.56855,-2.842123,,,,,,,
768,,,,2.061118,-0.186469,2.567669,,,,
768,-3.790365,6.692386,-2.667371,,,,,,,
770,,,,,,,44.907356,-68.654305,11.832689,
771,-3.527117,6.825749,-2.535126,,,,,,,
771,,,,1.960984,-0.303648,2.520797,,,,
773,-3.254295,6.973401,-2.223406,,,,,,,
776,-3.03891,7.054371,-1.821949,,,,,,,
773,,,,1.870436,-0.387804,2.464338,,,,
776,,,,1.787346,-0.441067,2.402553,,,,
778,-2.847457,7.163919,-1.538567,,,,,,,
778,,,,1.710647,-0.462372,2.335441,,,,
780,,,,,,,43.649868,-69.516899,13.924561,
781,,,,1.641405,-0.448524,2.263004,,,,
781,-2.651217,7.254416,-1.193786,,,,,,,
783,-2.454978,7.340149,-0.867897,,,,,,,
783,,,,1.577489,-0.404848,2.192696,,,,
786,-2.330534,7.440172,-0.556177,,,,,,,
786,,,,1.52316,-0.338802,2.120258,,,,
788,,,,1.479485,-0.25145,2.04569,,,,
788,-2.148653,7.511616,-0.315303,,,,,,,
790,,,,,,,42.752777,-69.830536,14.697029,
791,-1.9572,7.625927,-0.098043,,,,,,,
791,,,,1.4422,-0.149185,1.972187,,,,
793,,,,1.404916,-0.039463,1.902944,,,,
793,-1.856687,7.697372,0.095601,,,,,,,
796,,,,1.37935,0.068129,1.835833,,,,
796,-1.756175,7.845024,0.199507,,,,,,,
798,-1.703525,7.897417,0.199507,,,,,,,
798,,,,1.354849,0.17572,1.770852,,,,
799,,,,,,,40.798321,-70.607224,15.197617,
801,-1.631731,7.906943,0.185338,,,,,,,
801,,,,1.335674,0.275855,1.705871,,,,
803,-1.670022,7.978388,0.071985,,,,,,,
803,,,,1.316499,0.356815,1.645151,,,,
806,,,,1.29839,0.420731,1.587626,,,,
806,-1.703527,7.968861,-0.069706,,,,,,,
808,-1.708314,7.959336,-0.310581,,,,,,,
808,,,,1.279215,0.463342,1.527972,,,,
809,,,,,,,39.675621,-71.447998,15.727757,
811,-1.698742,7.892656,-0.556179,,,,,,,
811,,,,1.258975,0.485712,1.475774,,,,
813,,,,1.236604,0.483582,1.426772,,,,
813,-1.727461,7.802159,-0.815945,,,,,,,
816,-1.717889,7.835499,-1.16545,,,,,,,
816,,,,1.209973,0.447363,1.376704,,,,
818,,,,1.183341,0.394099,1.326637,,,,
818,-1.679599,7.783108,-1.5244,,,,,,,
819,,,,,,,38.780491,-71.02211,16.14871,
821,-1.670027,7.792634,-1.85029,,,,,,,
821,,,,1.150318,0.304617,1.272308,,,,
823,-1.593446,7.76882,-2.242301,,,,,,,
823,,,,1.110903,0.187438,1.224372,,,,
826,-1.579087,7.802161,-2.62959,,,,,,,
826,,,,1.064032,0.050019,1.170043,,,,
828,-1.516866,7.797398,-3.064109,,,,,,,
828,,,,1.013964,-0.118292,1.112519,,,,
829,,,,,,,37.841064,-71.165146,17.687559,
831,-1.397208,7.84979,-3.418337,,,,,,,
831,,,,0.952179,-0.313236,1.052864,,,,
833,-1.287122,7.873606,-3.78201,,,,,,,
833,,,,0.874415,-0.523093,0.991079,,,,
836,-1.157892,7.89742,-4.117345,,,,,,,
836,,,,0.79452,-0.754255,0.919706,,,,
838,,,,0.710364,-1.008853,0.849399,,,,
838,-1.04302,8.045073,-4.362944,,,,,,,
839,,,,,,,37.618225,-71.901176,18.68878,
841,-0.928148,8.178434,-4.514081,,,,,,,
841,,,,0.615556,-1.27943,0.77483,,,,
843,,,,0.522878,-1.553202,0.700262,,,,
843,-0.822849,8.359426,-4.584926,,,,,,,
846,-0.7702,8.440399,-4.636879,,,,,,,
846,,,,0.421678,-1.831236,0.623563,,,,
848,-0.727123,8.568998,-4.750233,,,,,,,
848,,,,0.316217,-2.107139,0.542603,,,,
849,,,,,,,37.668335,-71.538177,18.659817,
851,,,,0.201168,-2.391565,0.459512,,,,
851,-0.741483,8.726175,-4.835247,,,,,,,
853,-0.707979,8.826199,-4.873031,,,,,,,
853,,,,0.074402,-2.669599,0.371095,,,,
855,-0.703194,8.821436,-5.033615,,,,,,,
855,,,,-0.064082,-2.940176,0.280548,,,,
858,-0.736699,8.830961,-5.175306,,,,,,,
858,,,,-0.213219,-3.219275,0.184674,,,,
859,,,,,,,37.65752,-72.074715,18.077002,
860,-0.660118,8.826199,-5.255597,,,,,,,
860,,,,-0.366617,-3.495178,0.087735,,,,
863,-0.583537,8.807148,-5.255598,,,,,,,
863,,,,-0.526407,-3.780668,-0.004943,,,,
865,,,,-0.68087,-4.069355,-0.102947,,,,
865,-0.478238,8.79286,-5.32172,,,,,,,
868,,,,-0.830007,-4.362302,-0.192429,,,,
868,-0.377725,8.8262,-5.316997,,,,,,,
869,,,,,,,38.26395,-72.454102,16.466064,
870,-0.21499,8.911934,-5.16586,,,,,,,
870,,,,-0.973817,-4.661642,-0.285107,,,,
873,-0.0714,8.992905,-4.91554,,,,,,,
873,,,,-1.101649,-4.954589,-0.377785,,,,
875,0.096121,9.069111,-4.471575,,,,,,,
875,,,,-1.208175,-5.227296,-0.467267,,,,
878,0.230138,9.021482,-3.999272,,,,,,,
878,,,,-1.300853,-5.474437,-0.559945,,,,
879,,,,,,,40.194012,-72.541595,13.556303,
880,0.09612,8.997667,-3.309709,,,,,,,
880,,,,-1.377552,-5.676837,-0.659014,,,,
883,,,,-1.445729,-5.817452,-0.751692,,,,
883,-0.109694,8.930986,-2.634316,,,,,,,
885,-0.310721,8.826202,-1.90697,,,,,,,
885,,,,-1.503253,-5.905869,-0.830522,,,,
888,-0.516535,8.697601,-1.28353,,,,,,,
888,,,,-1.555451,-5.936762,-0.904025,,,,
889,,,,,,,41.977654,-72.239014,10.030405,
890,-0.85158,8.535664,-0.693151,,,,,,,
890,,,,-1.595931,-5.902673,-0.966875,,,,
893,-1.11483,8.307041,-0.230294,,,,,,,
893,,,,-1.63215,-5.825974,-1.012682,,,,
895,,,,,,,,,,61.987865
895,-1.464234,8.183205,0.081426,,,,,,,
895,,,,-1.658782,-5.715187,-1.045705,,,,
898,-1.756202,8.073656,0.327023,,,,,,,
898,,,,-1.688609,-5.582029,-1.061684,,,,
899,,,,,,,43.702061,-72.308273,6.997297,
900,-2.091247,7.992687,0.336469,,,,,,,
900,,,,-1.722698,-5.443545,-1.060619,,,,
903,-2.397574,7.906954,0.142825,,,,,,,
903,,,,-1.756786,-5.301865,-1.052096,,,,
905,-2.646465,7.921243,-0.135834,,,,,,,
905,,,,-1.800462,-5.178295,-1.029726,,,,
908,-2.87621,7.935532,-0.508954,,,,,,,
908,,,,-1.856921,-5.077095,-1.003094,,,,
909,,,,,,,45.5369,-72.37928,3.639338,
910,-3.153819,7.873614,-0.882073,,,,,,,
910,,,,-1.919772,-5.007853,-0.973267,,,,
913,-3.306982,7.840273,-1.212685,,,,,,,
913,,,,-1.995405,-4.967372,-0.937048,,,,
915,-3.460146,7.811696,-1.56219,,,,,,,
915,,,,-2.076365,-4.955655,-0.894438,,,,
918,,,,-2.172239,-4.983351,-0.849696,,,,
918,-3.503224,7.81646,-1.869187,,,,,,,
919,,,,,,,46.921127,-72.240288,0.646463,
920,-3.579806,7.887904,-2.180907,,,,,,,
920,,,,-2.280896,-5.040876,-0.804955,,,,
923,,,,-2.403401,-5.128227,-0.762345,,,,
923,-3.685107,7.81646,-2.582365,,,,,,,
925,,,,-2.53869,-5.252863,-0.714408,,,,
925,-3.685107,7.730726,-2.832686,,,,,,,
928,-3.627672,7.597364,-2.9791,,,,,,,
928,,,,-2.684631,-5.405196,-0.666471,,,,
930,-3.570236,7.44495,-3.007438,,,,,,,
930,,,,-2.829507,-5.576703,-0.620665,,,,
929,,,,,,,47.523708,-71.674217,-2.404919,
933,,,,-2.989296,-5.768451,-0.575924,,,,
933,-3.460151,7.254432,-3.059392,,,,,,,
935,-3.259125,7.030573,-3.116068,,,,,,,
935,,,,-3.152281,-5.977242,-0.534378,,,,
938,-3.072458,6.86387,-3.168022,,,,,,,
938,,,,-3.314201,-6.216927,-0.496029,,,,
939,,,,,,,48.693424,-71.314003,-6.455462,
940,-2.732628,6.716219,-3.0405,,,,,,,
940,,,,-3.472926,-6.490699,-0.465136,,,,
943,-2.407157,6.654301,-2.554028,,,,,,,
943,,,,-3.626324,-6.760211,-0.440635,,,,
945,-2.048182,6.463784,-2.048664,,,,,,,
945,,,,-3.776526,-7.012679,-0.422526,,,,
948,-1.641343,6.373287,-1.576361,,,,,,,
948,,,,-3.922467,-7.235319,-0.412938,,,,
949,,,,,,,49.380085,-72.353371,-11.889359,
950,-1.287153,6.258977,-1.113504,,,,,,,
950,,,,-4.057755,-7.435588,-0.412938,,,,
953,,,,-4.197305,-7.60603,-0.414004,,,,
953,-0.904246,6.173244,-0.584525,,,,,,,
955,-0.492621,6.139904,-0.107499,,,,,,,
955,,,,-4.324071,-7.756232,-0.417199,,,,
958,,,,-4.444446,-7.88939,-0.424656,,,,
958,-0.109714,6.144666,0.407312,,,,,,,
959,,,,,,,49.036289,-71.828438,-18.33378,
960,0.301911,6.201822,0.7946,,,,,,,
960,,,,-4.56056,-8.007633,-0.433178,,,,
962,0.589092,6.287555,1.224396,,,,,,,
962,,,,-4.671347,-8.11416,-0.440635,,,,
965,0.881058,6.43997,1.606961,,,,,,,
965,,,,-4.775743,-8.204707,-0.456614,,,,
967,,,,-4.878008,-8.270754,-0.476854,,,,
967,1.091657,6.668592,2.173725,,,,,,,
969,,,,,,,48.443405,-70.37809,-24.332062,
970,1.125161,6.868637,2.77355,,,,,,,
970,,,,-4.970686,-8.310169,-0.50242,,,,
972,1.115587,6.978185,3.396989,,,,,,,
972,,,,-5.04845,-8.31443,-0.539705,,,,
975,1.029432,7.011526,3.930692,,,,,,,
975,,,,-5.114497,-8.290995,-0.571663,,,,
977,0.833191,6.959134,4.379379,,,,,,,
977,,,,-5.173086,-8.246254,-0.611077,,,,
980,0.627378,6.854349,4.761945,,,,,,,
980,,,,-5.211435,-8.186599,-0.647296,,,,
979,,,,,,,47.47242,-69.070709,-30.879587,
982,0.330623,6.67812,5.224802,,,,,,,
982,,,,-5.242328,-8.116291,-0.672863,,,,
985,,,,-5.259372,-8.032136,-0.688842,,,,
985,0.024296,6.425684,5.725443,,,,,,,
987,-0.396903,6.187536,6.070224,,,,,,,
987,,,,-5.262568,-7.932001,-0.694168,,,,
990,-0.856393,5.9351,6.415006,,,,,,,
989,,,,,,,45.973866,-67.519173,-38.437885,
990,,,,-5.260437,-7.819083,-0.684581,,,,
992,-1.26802,5.611219,6.736171,,,,,,,
995,-1.612637,5.315917,7.019553,,,,,,,
992,,,,-5.24872,-7.700839,-0.656884,,,,
995,,,,-5.231676,-7.567681,-0.613208,,,,
997,-1.928537,4.977747,7.302935,,,,,,,
997,,,,-5.21037,-7.437718,-0.556749,,,,
999,,,,,,,44.358788,-65.971779,-45.362106,
1000,-2.191787,4.672918,7.694946,,,,,,,
1000,,,,-5.183739,-7.301365,-0.483246,,,,
1002,-2.368882,4.420482,8.044451,,,,,,,
1002,,,,-5.148585,-7.169272,-0.396959,,,,
1005,,,,-5.108105,-7.04144,-0.298955,,,,
1005,-2.589055,4.058497,8.337277,,,,,,,
1007,,,,-5.075082,-6.921066,-0.190298,,,,
1007,-2.842732,3.677462,9.49442,,,,,,,
1009,,,,,,,42.042057,-64.028511,-51.123596,
1010,-2.660851,3.682225,11.043574,,,,,,,
1010,,,,-5.001579,-6.786843,-0.079511,,,,
1012,,,,-4.884399,-6.646228,0.020624,,,,
1015,,,,-4.762959,-6.526918,0.122889,,,,
1012,-2.478971,3.65841,11.034128,,,,,,,
1015,-2.70393,3.567914,10.490979,,,,,,,
1017,-2.770939,3.739382,10.023399,,,,,,,
1017,,,,-4.64152,-6.444893,0.221959,,,,
1019,,,,,,,38.887474,-62.02705,-56.605408,
1020,-2.426323,3.891796,9.872262,,,,,,,
1020,,,,-4.512623,-6.402282,0.299723,,,,
1022,-1.957261,4.072788,9.782524,,,,,,,
1022,,,,-4.38053,-6.380977,0.361508,,,,
1025,,,,-4.255894,-6.379912,0.404119,,,,
1027,,,,-4.13765,-6.394825,0.441403,,,,
1025,-1.54085,4.129944,9.584156,,,,,,,
1027,-1.129225,4.206151,9.296052,,,,,,,
1030,,,,-4.033254,-6.426784,0.472296,,,,
1029,,,,,,,35.469681,-59.851494,-60.671127,
1030,-0.822899,4.253781,8.960716,,,,,,,
1032,-0.530933,4.220441,8.700951,,,,,,,
1035,-0.310761,4.134708,8.351445,,,,,,,
1032,,,,-3.940576,-6.474721,0.494666,,,,
1035,,,,-3.856421,-6.530115,0.513841,,,,
1037,0.009923,4.12042,8.053894,,,,,,,
1037,,,,-3.782917,-6.602552,0.524494,,,,
1039,,,,,,,31.923458,-57.480034,-64.882492,
1040,0.330608,4.139472,7.60993,,,,,,,
1040,,,,-3.720067,-6.676055,0.530885,,,,
1042,,,,-3.676391,-6.764472,0.533016,,,,
1045,,,,,,,,,,80.427811
1042,0.656079,4.125183,7.236809,,,,,,,
1045,,,,-3.640172,-6.861412,0.528755,,,,
1045,0.991123,4.12042,6.995935,,,,,,,
1047,1.37403,4.08708,6.858967,,,,,,,
1047,,,,-3.61354,-6.953024,0.522363,,,,
1050,1.685142,4.010873,6.750337,,,,,,,
1050,,,,-3.587974,-7.038245,0.51171,,,,
1049,,,,,,,28.569031,-55.666283,-69.398712,
1052,2.010613,3.982295,6.651153,,,,,,,
1052,,,,-3.57093,-7.111748,0.498927,,,,
1055,2.288221,3.882274,6.651153,,,,,,,
1055,,,,-3.561342,-7.147967,0.476557,,,,
1057,2.517965,3.848933,6.655876,,,,,,,
1057,,,,-3.562408,-7.166077,0.459512,,,,
1060,,,,-3.573061,-7.163946,0.436077,,,,
1059,,,,,,,24.333332,-52.887161,-73.065781,
1060,2.766854,3.839407,6.5378,,,,,,,
1062,,,,-3.595431,-7.153294,0.414771,,,,
1062,2.972666,3.853697,6.452785,,,,,,,
1065,3.097111,3.806067,6.457509,,,,,,,
1067,3.288564,3.710809,6.443339,,,,,,,
1065,,,,-3.628454,-7.135184,0.398792,,,,
1067,,,,-3.660412,-7.104291,0.382814,,,,
1069,,,,-3.687044,-7.058486,0.373226,,,,
1069,3.408222,3.629839,6.509461,,,,,,,
1069,,,,,,,19.137165,-50.059879,-75.509872,
1072,3.575744,3.463135,6.703105,,,,,,,
1072,,,,-3.714741,-6.997765,0.366835,,,,
1074,3.704974,3.386929,6.953425,,,,,,,
1074,,,,-3.741372,-6.912544,0.363639,,,,
1077,,,,-3.760547,-6.809214,0.359378,,,,
1077,3.791128,3.24404,7.213192,,,,,,,
1079,,,,-3.777591,-6.67499,0.356182,,,,
1079,3.973009,3.077337,7.520189,,,,,,,
1082,4.197966,2.977315,7.959431,,,,,,,
1082,,,,-3.786113,-6.524788,0.354051,,,,
1079,,,,,,,14.272042,-47.449684,-77.53038,
1084,4.32241,2.905871,8.356166,,,,,,,
1084,,,,-3.785048,-6.350085,0.346595,,,,
1087,4.432496,2.786798,8.535642,,,,,,,
1087,,,,-3.777591,-6.155142,0.338072,,,,
1089,4.494718,2.682013,8.748177,,,,,,,
1089,,,,-3.765873,-5.942089,0.32955,,,,
1089,,,,,,,9.959111,-44.848244,-81.17514,
1092,,,,-3.749894,-5.720514,0.318898,,,,
1092,4.552154,2.605806,9.007943,,,,,,,
1094,4.470785,2.572466,9.215756,,,,,,,
1094,,,,-3.73285,-5.476569,0.306115,,,,
1097,4.446852,2.524836,9.433016,,,,,,,
1097,,,,-3.707284,-5.223036,0.290136,,,,
1099,4.480357,2.415289,9.758905,,,,,,,
1099,,,,-3.676391,-4.955655,0.275222,,,,
1099,,,,,,,6.030101,-42.309772,-83.181732,
1102,4.403774,2.339082,9.933658,,,,,,,
1102,,,,-3.638041,-4.674426,0.2667,,,,
1104,4.312833,2.229534,10.09424,,,,,,,
1104,,,,-3.597562,-4.386805,0.258178,,,,
1107,4.245823,2.210482,10.292607,,,,,,,
1107,,,,-3.549625,-4.101314,0.24859,,,,
1109,,,,,,,2.321691,-39.986645,-84.439873,
1109,4.169241,2.115224,10.443744,,,,,,,
1109,,,,-3.496362,-3.815823,0.249656,,,,
1112,,,,-3.435642,-3.537789,0.252851,,,,
1112,4.035222,1.948521,10.476805,,,,,,,
1114,4.030435,1.877077,10.472082,,,,,,,
1114,,,,-3.371726,-3.260821,0.258178,,,,
1117,3.972999,1.786581,10.429575,,,,,,,
1117,,,,-3.304614,-2.99557,0.263504,,,,
1119,3.94428,1.734188,10.302052,,,,,,,
1119,,,,-3.241764,-2.740972,0.277352,,,,
1119,,,,,,,-0.893172,-36.779827,-85.979744,
1122,,,,-3.176783,-2.501288,0.290136,,,,
1124,,,,-3.107541,-2.263734,0.297592,,,,
1122,3.882057,1.777055,10.33039,,,,,,,
1124,3.882056,1.76753,10.245376,,,,,,,
1127,3.910773,1.68656,9.980886,,,,,,,
1127,,,,-3.041494,-2.042159,0.30718,,,,
1129,3.891627,1.643693,9.881701,,,,,,,
1129,,,,-2.977578,-1.832303,0.317832,,,,
1129,,,,,,,-3.138989,-34.036003,-86.410095,
1132,3.858122,1.610353,9.815579,,,,,,,
1132,,,,-2.920054,-1.637359,0.326355,,,,
1134,,,,-2.859334,-1.444547,0.332746,,,,
1134,3.882053,1.57225,9.744735,,,,,,,
1137,3.853334,1.491279,9.702227,,,,,,,
1137,,,,-2.80181,-1.259191,0.339138,,,,
1139,,,,,,,-3.907593,-32.121033,-87.635452,
1139,,,,-2.748547,-1.081292,0.348725,,,,
1139,3.872479,1.457939,9.555812,,,,,,,
1142,,,,-2.70274,-0.911915,0.352986,,,,
1142,3.882051,1.419836,9.423567,,,,,,,
1144,3.862905,1.338866,9.286599,,,,,,,
1144,,,,-2.66013,-0.752125,0.357247,,,,
1147,3.848545,1.324577,9.06934,,,,,,,
1147,,,,-2.62178,-0.601923,0.362574,,,,
1149,3.858118,1.296,8.771789,,,,,,,
1149,,,,,,,-4.352331,-29.692451,-88.324898,
1152,3.877262,1.281711,8.663159,,,,,,,
1149,,,,-2.582366,-0.468765,0.364704,,,,
1152,,,,-2.550408,-0.351586,0.364704,,,,
1154,3.915552,1.219793,8.516746,,,,,,,
1154,,,,-2.526972,-0.241864,0.364704,,,,
1157,3.886834,1.110245,8.460068,,,,,,,
1157,,,,-2.505667,-0.132142,0.371096,,,,
1159,3.829397,1.062616,8.464791,,,,,,,
1159,,,,-2.502471,-0.032007,0.379618,,,,
1159,,,,,,,-5.202569,-27.433352,-88.172112,
1162,3.867687,0.981646,8.644265,,,,,,,
1162,,,,-2.510993,0.065997,0.391336,,,,
1164,3.886832,0.914965,8.889864,,,,,,,
1164,,,,-2.522711,0.156544,0.414771,,,,
1167,3.896404,0.876862,9.177969,,,,,,,
1167,,,,-2.537625,0.2407,0.439273,,,,
1169,3.905975,0.848284,9.52275,,,,,,,
1169,,,,,,,-5.033378,-25.062414,-88.336914,
1169,,,,-2.547212,0.300355,0.4691,,,,
1171,,,,-2.539755,0.344031,0.499993,,,,
1171,3.891615,0.833996,9.872254,,,,,,,
1174,3.905974,0.753026,10.075343,,,,,,,
1174,,,,-2.514189,0.368532,0.526624,,,,
1176,3.968196,0.638715,10.259542,,,,,,,
1176,,,,-2.4801,0.363205,0.553256,,,,
1179,3.939477,0.638715,10.448462,,,,,,,
1179,,,,-2.430033,0.329117,0.582018,,,,
1179,,,,,,,-4.227865,-23.465076,-88.862442,
1181,3.920331,0.71016,10.821582,,,,,,,
1181,,,,-2.363987,0.28118,0.603323,,,,
1184,,,,-2.283027,0.231113,0.622498,,,,
1184,3.858108,0.610138,11.001058,,,,,,,
1186,,,,-2.195675,0.173588,0.635281,,,,
1186,3.757594,0.495828,11.076626,,,,,,,
1189,3.637935,0.324361,11.246655,,,,,,,
1189,,,,-2.108323,0.111803,0.648064,,,,
1189,,,,,,,-4.143674,-21.805399,-89.742371,
1195,,,,,,,,,,222.473801
1191,3.585284,0.238629,11.355284,,,,,,,
1194,3.551779,0.157659,11.553652,,,,,,,
1191,,,,-2.017776,0.053214,0.665108,,,,
1194,,,,-1.927228,-0.00218,0.683218,,,,
1196,3.441693,0.029059,11.766188,,,,,,,
1196,,,,-1.838812,-0.04266,0.696001,,,,
1199,3.412974,0.010007,11.950386,,,,,,,
1199,,,,-1.744003,-0.072487,0.718372,,,,
1199,,,,,,,-4.050628,-20.348722,-89.687973,
1201,3.441691,0.071926,12.14403,,,,,,,
1201,,,,-1.649195,-0.08314,0.740742,,,,
1204,,,,-1.553321,-0.076749,0.760982,,,,
1204,3.408186,0.124319,12.347121,,,,,,,
1206,,,,-1.460643,-0.053313,0.788679,,,,
1206,3.341177,0.138608,12.517148,,,,,,,
1209,3.403399,0.233867,12.805254,,,,,,,
1209,,,,-1.363704,-0.014963,0.814245,,,,
1209,,,,,,,-3.820022,-19.079111,-89.951767,
1211,,,,-1.259308,0.051083,0.844073,,,,
1214,,,,-1.149586,0.143761,0.877096,,,,
1211,3.369894,0.395808,13.098082,,,,,,,
1214,3.427329,0.481542,13.315341,,,,,,,
1216,,,,-1.032407,0.255614,0.905858,,,,
1216,3.513483,0.610142,13.461755,,,,,,,
1219,3.556559,0.767319,13.471201,,,,,,,
1219,,,,-0.918424,0.374923,0.933555,,,,
1219,,,,,,,-4.064104,-17.411236,-90.011749,
1221,3.585276,0.819712,13.490093,,,,,,,
1221,,,,-0.80018,0.509146,0.962317,,,,
1224,3.613994,0.857816,13.537324,,,,,,,
1224,,,,-0.68087,0.658283,0.987883,,,,
1226,3.637925,0.829238,13.442862,,,,,,,
1226,,,,-0.563691,0.822334,1.01345,,,,
1229,,,,-0.457165,1.001298,1.034755,,,,
1229,3.609206,0.805424,13.301171,,,,,,,
1229,,,,,,,-4.092309,-16.489338,-90.215317,
1231,3.479974,0.786373,13.225603,,,,,,,
1231,,,,-0.361291,1.196241,1.057125,,,,
1234,3.403392,0.724454,13.263387,,,,,,,
1234,,,,-0.27607,1.399707,1.077365,,,,
1236,3.278946,0.633958,13.258663,,,,,,,
1236,,,,-0.205763,1.621282,1.098671,,,,
1239,,,,-0.142912,1.855639,1.119976,,,,
1239,3.178432,0.57204,13.263387,,,,,,,
1239,,,,,,,-3.160327,-15.827436,-90.24369,
1241,3.034841,0.505359,13.395631,,,,,,,
1241,,,,-0.086453,2.089997,1.144477,,,,
1244,2.876891,0.529174,13.466475,,,,,,,
1244,,,,-0.026798,2.316899,1.172174,,,,
1246,2.790736,0.562515,13.575106,,,,,,,
1246,,,,0.033922,2.537408,1.199871,,,,
1249,2.685436,0.653012,13.655397,,,,,,,
1249,,,,0.101033,2.744069,1.230763,,,,
1249,,,,,,,-1.64322,-15.565548,-90.800743,
1251,2.565776,0.691115,13.674289,,,,,,,
1251,,,,0.168145,2.92836,1.259525,,,,
1254,2.503553,0.848293,13.81598,,,,,,,
1254,,,,0.243779,3.089215,1.292549,,,,
1256,,,,0.326869,3.229829,1.325572,,,,
1256,2.407825,0.881634,13.867933,,,,,,,
1259,,,,,,,0.535968,-15.737829,-90.51059,
1259,2.273807,0.895923,14.056854,,,,,,,
1259,,,,0.408894,3.350204,1.355399,,,,
1261,2.130216,0.919738,14.274114,,,,,,,
1261,,,,0.498377,3.453534,1.380965,,,,
1264,1.95312,0.924502,14.37802,,,,,,,
1264,,,,0.59212,3.544082,1.411858,,,,
1266,1.780811,0.829243,14.48665,,,,,,,
1266,,,,0.682667,3.622911,1.442751,,,,
1269,1.618075,0.791139,14.562219,,,,,,,
1269,,,,0.778541,3.674044,1.473643,,,,
1269,,,,,,,3.140604,-15.195265,-90.943703,
1271,1.421834,0.714932,14.514988,,,,,,,
1274,1.192088,0.605385,14.278836,,,,,,,
1271,,,,0.87761,3.707067,1.509862,,,,
1274,,,,0.977745,3.713459,1.554603,,,,
1276,1.053283,0.510126,13.872655,,,,,,,
1276,,,,1.071488,3.685762,1.597214,,,,
1278,0.84747,0.443445,13.461751,,,,,,,
1278,,,,1.157775,3.625042,1.645151,,,,
1279,,,,,,,5.868401,-5.336874,-78.955681,
1281,0.641656,0.448208,13.098078,,,,,,,
1281,,,,1.232343,3.53556,1.700545,,,,
1283,0.474133,0.457734,12.706067,,,,,,,
1283,,,,1.296259,3.426903,1.757004,,,,
1286,0.220456,0.400579,12.332947,,,,,,,
1286,,,,1.345261,3.296941,1.811332,,,,
1288,0.00507,0.410105,11.945659,,,,,,,
1288,,,,1.385741,3.160587,1.870987,,,,
1289,,,,,,,8.596676,-7.945377,-77.991714,
1291,-0.157667,0.310083,11.49697,,,,,,,
1291,,,,1.402785,3.019972,1.934903,,,,
1293,-0.334762,0.257691,11.223033,,,,,,,
1293,,,,1.402785,2.883619,2.000949,,,,
1296,-0.454421,0.23864,11.06245,,,,,,,
1296,,,,1.390002,2.752591,2.070191,,,,
1299,,,,,,,10.422918,-9.185469,-77.892632,
1298,-0.507072,0.286269,11.001051,,,,,,,
1298,,,,1.365501,2.630086,2.135172,,,,
1301,,,,1.336739,2.522494,2.200153,,,,
1301,-0.463996,0.291033,10.949098,,,,,,,
1303,-0.387415,0.3339,11.029389,,,,,,,
1303,,,,1.307977,2.42662,2.260873,,,,
1306,-0.291688,0.395818,11.12385,,,,,,,
1306,,,,1.286672,2.344595,2.317332,,,,
1308,-0.186389,0.352952,11.123849,,,,,,,
1308,,,,1.266431,2.287071,2.373791,,,,
1309,,,,,,,12.176933,-9.860767,-78.277374,
1311,-0.061945,0.305323,11.114403,,,,,,,
1313,0.043354,0.391056,10.939651,,,,,,,
1311,,,,1.257909,2.234873,2.42812,,,,
1313,,,,1.245126,2.189067,2.478187,,,,
1316,,,,1.224886,2.148587,2.527189,,,,
1316,0.124721,0.467264,10.878251,,,,,,,
1318,0.239593,0.467264,10.807405,,,,,,,
1318,,,,1.212103,2.113433,2.567669,,,,
1319,,,,,,,13.534578,-10.696703,-78.283699,
1321,0.464551,0.519657,10.760176,,,,,,,
1323,0.598568,0.614916,10.774344,,,,,,,
1321,,,,1.193994,2.091062,2.602823,,,,
1323,,,,1.176949,2.08041,2.629454,,,,
1326,0.742158,0.624442,10.741283,,,,,,,
1326,,,,1.162036,2.075083,2.653955,,,,
1328,0.837884,0.676835,10.826297,,,,,,,
1328,,,,1.143926,2.078279,2.67313,,,,
1329,,,,,,,14.26693,-12.435194,-76.601173,
1331,0.900106,0.729228,10.892419,,,,,,,
1331,,,,1.125817,2.091062,2.682718,,,,
1333,,,,1.111968,2.113433,2.683783,,,,
1333,1.005405,0.719702,10.944373,,,,,,,
1336,1.053267,0.729228,11.086063,,,,,,,
1336,,,,1.104511,2.147521,2.685913,,,,
1338,,,,1.095989,2.188001,2.680587,,,,
1338,1.129848,0.729228,11.171079,,,,,,,
1339,,,,,,,15.309565,-13.98773,-76.209084,
1341,,,,1.095989,2.235938,2.672065,,,,
1341,1.158566,0.753043,11.270262,,,,,,,
1343,1.211215,0.724466,11.364722,,,,,,,
1344,,,,,,,,,,454.953186
1343,,,,1.10025,2.279614,2.661412,,,,
1346,1.268651,0.748281,11.534751,,,,,,,
1346,,,,1.110903,2.329681,2.647564,,,,
1348,1.259077,0.729229,11.690611,,,,,,,
1348,,,,1.122621,2.390401,2.63265,,,,
1349,,,,,,,16.404268,-14.437744,-76.197472,
1351,1.187281,0.705415,11.851193,,,,,,,
1351,,,,1.136469,2.455382,2.618802,,,,
1353,1.177708,0.610156,12.068453,,,,,,,
1353,,,,1.15884,2.52782,2.604953,,,,
1356,1.053262,0.595867,12.290435,,,,,,,
1356,,,,1.185471,2.605584,2.591105,,,,
1358,1.010184,0.543475,12.469911,,,,,,,
1358,,,,1.217429,2.692936,2.583648,,,,
1359,,,,,,,17.596359,-16.377398,-75.343864,
1361,0.986252,0.576816,12.639939,,,,,,,
1361,,,,1.253648,2.787745,2.580452,,,,
1363,0.924029,0.529187,12.904428,,,,,,,
1363,,,,1.30052,2.881488,2.576191,,,,
1366,0.89531,0.476795,13.102797,,,,,,,
1366,,,,1.352718,2.9731,2.576191,,,,
1368,0.876164,0.519662,13.154749,,,,,,,
1368,,,,1.410242,3.067909,2.582583,,,,
1369,,,,,,,19.370537,-18.720013,-74.864304,
1371,0.833086,0.476795,13.301164,,,,,,,
1371,,,,1.476288,3.154195,2.588974,,,,
1373,,,,1.556183,3.228764,2.597497,,,,
1373,0.804367,0.481558,13.4523,,,,,,,
1376,0.742144,0.462507,13.565654,,,,,,,
1376,,,,1.636078,3.303332,2.608149,,,,
1378,0.617699,0.472033,13.645944,,,,,,,
1378,,,,1.726625,3.367248,2.625193,,,,
1379,,,,,,,21.154438,-19.789516,-73.99884,
1380,0.53633,0.452982,13.754574,,,,,,,
1380,,,,1.819303,3.426903,2.641172,,,,
1383,0.373593,0.400589,13.815973,,,,,,,
1383,,,,1.919438,3.486557,2.658216,,,,
1385,0.22043,0.443456,13.891541,,,,,,,
1385,,,,2.019573,3.540886,2.679522,,,,
1388,,,,2.117577,3.586692,2.709349,,,,
1388,0.043334,0.376775,13.853757,,,,,,,
1389,,,,,,,22.715786,-21.383211,-73.530304,
1390,,,,2.213451,3.616519,2.744503,,,,
1393,,,,2.301868,3.630368,2.786048,,,,
1390,-0.157693,0.343435,13.674281,,,,,,,
1393,-0.258207,0.348198,13.433408,,,,,,,
1395,-0.387439,0.31962,13.083902,,,,,,,
1395,,,,2.379632,3.617584,2.831854,,,,
1398,-0.588467,0.33391,12.69189,,,,,,,
1398,,,,2.45207,3.582431,2.885118,,,,
1398,,,,,,,24.204021,-23.888216,-72.997185,
1400,,,,2.510659,3.520646,2.939446,,,,
1400,-0.70334,0.357724,12.328218,,,,,,,
1403,-0.789494,0.348199,12.02122,,,,,,,
1405,-0.894795,0.314859,11.72367,,,,,,,
1403,,,,2.559661,3.446077,2.991644,,,,
1405,,,,2.594815,3.360856,3.042777,,,,
1408,-0.904368,0.286281,11.397779,,,,,,,
1408,,,,2.627838,3.255395,3.090714,,,,
1408,,,,,,,25.408024,-26.027918,-71.363861,
1410,-0.9283,0.30057,11.185244,,,,,,,
1410,,,,2.652339,3.146738,3.137585,,,,
1413,,,,2.665123,3.049799,3.182326,,,,
1413,-0.918729,0.352963,11.019937,,,,,,,
1415,,,,2.673645,2.95286,3.216415,,,,
1415,-0.832575,0.381541,10.939645,,,,,,,
1418,,,,2.672579,2.852725,3.240916,,,,
1418,-0.741635,0.381541,10.831016,,,,,,,
1418,,,,,,,26.602886,-28.176458,-69.266708,
1420,,,,2.673645,2.762178,3.259025,,,,
1420,-0.607618,0.44346,10.783785,,,,,,,
1423,-0.478387,0.567297,10.793231,,,,,,,
1423,,,,2.67471,2.681218,3.264352,,,,
1425,-0.373088,0.710186,10.897138,,,,,,,
1425,,,,2.671514,2.615172,3.264352,,,,
1428,-0.320439,0.729238,10.996321,,,,,,,
1428,,,,2.673645,2.572561,3.25796,,,,
1428,,,,,,,28.039059,-31.783995,-68.353111,
1430,-0.224713,0.843549,11.123842,,,,,,,
1430,,,,2.677906,2.553386,3.247308,,,,
1433,,,,2.681101,2.565104,3.231328,,,,
1433,-0.128986,0.934045,11.241919,,,,,,,
1435,-0.009328,1.019779,11.265532,,,,,,,
1435,,,,2.680036,2.591736,3.206827,,,,
1438,,,,2.682167,2.62902,3.180196,,,,
1438,0.014603,1.081698,11.303318,,,,,,,
1438,,,,,,,28.829777,-34.626762,-66.614967,
1440,,,,2.688558,2.6695,3.155695,,,,
1440,0.115115,1.219823,11.289148,,,,,,,
1443,0.143833,1.410342,11.32221,,,,,,,
1443,,,,2.689624,2.717437,3.130128,,,,
1445,0.143832,1.548468,11.251363,,,,,,,
1445,,,,2.693885,2.774961,3.099236,,,,
1448,0.057677,1.724697,11.312762,,,,,,,
1448,,,,2.698146,2.836746,3.073669,,,,
1448,,,,,,,28.873741,-36.694176,-64.191238,
1450,0.028958,1.877112,11.440285,,,,,,,
1450,,,,2.705602,2.903858,3.048103,,,,
1453,-0.023692,1.977134,11.57253,,,,,,,
1453,,,,2.710929,2.977361,3.019341,,,,
1455,-0.11942,2.067631,11.808681,,,,,,,
1455,,,,2.718386,3.061517,2.99697,,,,
1458,-0.229506,2.091446,12.035387,,,,,,,
1458,,,,2.731169,3.157391,2.978861,,,,
1458,,,,,,,29.417828,-39.872864,-63.011295,
1460,-0.339593,2.177179,12.342383,,,,,,,
1460,,,,2.748213,3.262851,2.966078,,,,
1463,-0.420962,2.205757,12.587979,,,,,,,
1463,,,,2.773779,3.376835,2.959686,,,,
1465,-0.507116,2.167654,12.753285,,,,,,,
1465,,,,2.806803,3.506797,2.962882,,,,
1468,-0.62199,2.124788,12.876085,,,,,,,
1468,,,,2.848348,3.637824,2.971404,,,,
1468,,,,,,,29.934792,-42.866241,-61.838024,
1470,,,,2.89735,3.758199,2.989514,,,,
1470,-0.698572,2.09621,12.942207,,,,,,,
1473,-0.770368,2.072396,12.904423,,,,,,,
1473,,,,2.950613,3.86153,3.01508,,,,
1475,-0.827805,2.048581,12.937485,,,,,,,
1475,,,,3.014529,3.956338,3.05343,,,,
1478,-0.890028,2.039055,12.729671,,,,,,,
1478,,,,3.078445,4.022385,3.09604,,,,
1478,,,,,,,29.949677,-45.487854,-59.06945,
1480,-0.890028,2.067634,12.578533,,,,,,,
1480,,,,3.141295,4.070322,3.147173,,,,
1483,-0.813448,2.153367,12.399057,,,,,,,
1483,,,,3.202015,4.089496,3.19511,,,,
1485,-0.775157,2.215286,12.21486,,,,,,,
1485,,,,3.266996,4.08417,3.239851,,,,
1487,-0.74644,2.33436,12.082614,,,,,,,
1487,,,,3.327716,4.060734,3.281396,,,,
1488,,,,,,,30.775013,-48.194199,-55.189056,
1490,-0.746441,2.386753,11.88897,,,,,,,
1490,,,,3.388436,4.017058,3.326137,,,,
1494,,,,,,,,,,521.198303
1492,,,,3.452352,3.963795,3.366617,,,,
1492,-0.684219,2.486775,11.586697,,,,,,,
1495,-0.593279,2.543931,11.364715,,,,,,,
1495,,,,3.517333,3.891357,3.400705,,,,
1497,,,,3.569531,3.801875,3.425206,,,,
1497,-0.521484,2.59156,11.100223,,,,,,,
1498,,,,,,,30.927177,-51.214722,-51.340519,
1500,-0.464049,2.596323,10.897133,,,,,,,
1500,,,,3.624925,3.702806,3.446512,,,,
1502,-0.387468,2.739213,10.571244,,,,,,,
1502,,,,3.671796,3.60054,3.456099,,,,
1505,-0.210374,2.820183,10.363431,,,,,,,
1505,,,,3.708015,3.495079,3.459295,,,,
1507,-0.109861,2.810657,10.193401,,,,,,,
1507,,,,3.737843,3.393879,3.455034,,,,
1508,,,,,,,30.270573,-53.622841,-47.557148,
1510,,,,3.761278,3.29694,3.44012,,,,
1512,,,,3.774062,3.200001,3.418815,,,,
1510,0.048088,2.920205,9.971418,,,,,,,
1512,0.16296,3.063095,9.73999,,,,,,,
1515,0.325695,3.148828,9.536899,,,,,,,
1515,,,,3.779388,3.110519,3.391118,,,,
1517,0.469285,3.358398,9.338532,,,,,,,
1517,,,,3.776192,3.023167,3.354899,,,,
1518,,,,,,,29.727451,-56.02977,-44.253242,
1520,0.584156,3.548916,9.149611,,,,,,,
1522,0.665523,3.658464,8.993751,,,,,,,
1520,,,,3.764474,2.949664,3.313354,,,,
1522,,,,3.74743,2.885748,3.260091,,,,
1525,0.713386,3.910902,8.908736,,,,,,,
1525,,,,3.72506,2.827158,3.200436,,,,
1527,,,,3.698428,2.792005,3.137585,,,,
1527,0.718172,4.058553,8.88512,,,,,,,
1528,,,,,,,28.621593,-58.752647,-41.306038,
1530,0.689453,4.253835,8.875674,,,,,,,
1530,,,,3.668601,2.764308,3.076865,,,,
1532,0.622444,4.43959,8.922904,,,,,,,
1535,0.579366,4.64916,8.951242,,,,,,,
1537,0.579365,4.801575,8.998473,,,,,,,
1532,,,,3.64623,2.747264,3.018276,,,,
1535,,,,3.616403,2.741937,2.95436,,,,
1537,,,,3.584445,2.746199,2.890444,,,,
1538,,,,,,,27.532646,-60.93309,-38.085247,
1540,,,,3.554617,2.75259,2.823333,,,,
1540,0.565006,4.925413,9.111825,,,,,,,
1542,0.593723,5.096879,9.215732,,,,,,,
1542,,,,3.525855,2.766438,2.754091,,,,
1545,0.598509,5.220716,9.300746,,,,,,,
1547,0.598508,5.220716,9.395206,,,,,,,
1550,0.517139,5.301686,9.456606,,,,,,,
1545,,,,3.499223,2.782418,2.680587,,,,
1547,,,,3.483245,2.795201,2.608149,,,,
1550,,,,3.480049,2.81118,2.539973,,,,
1548,,,,,,,26.249126,-62.346939,-35.803139,
1552,0.411839,5.244532,9.418821,,,,,,,
1555,0.287393,5.254057,9.489667,,,,,,,
1552,,,,3.481114,2.812245,2.482448,,,,
1555,,,,3.492832,2.820767,2.423859,,,,
1557,0.186879,5.215954,9.598296,,,,,,,
1557,,,,3.516268,2.823963,2.370595,,,,
1558,,,,,,,25.033707,-63.591965,-33.079498,
1560,0.01457,5.177851,9.612466,,,,,,,
1560,,,,3.549291,2.823963,2.323724,,,,
1562,-0.157739,5.044488,9.669143,,,,,,,
1562,,,,3.589771,2.825028,2.280048,,,,
1565,-0.24868,5.058778,9.645526,,,,,,,
1565,,,,3.637708,2.817571,2.240633,,,,
1567,-0.272613,5.077829,9.532173,,,,,,,
1567,,,,3.68671,2.801592,2.20548,,,,
1568,,,,,,,24.663033,-65.837692,-29.349693,
1570,-0.286972,5.044489,9.475497,,,,,,,
1570,,,,3.737843,2.776026,2.169261,,,,
1572,-0.263041,5.020675,9.305468,,,,,,,
1578,,,,,,,24.170021,-67.88163,-26.074749,
1575,-0.157742,5.011149,9.097654,,,,,,,
1577,-0.105093,5.015912,8.880396,,,,,,,
1580,-0.05723,5.034965,8.587567,,,,,,,
1582,0.024137,5.058779,8.370307,,,,,,,
1572,,,,3.797497,2.748329,2.128781,,,,
1575,,,,3.857152,2.713175,2.089366,,,,
1577,,,,3.915742,2.665238,2.04569,,,,
1580,,,,3.975396,2.621562,1.998819,,,,
1582,,,,4.032921,2.57256,1.954077,,,,
1585,,,,4.086184,2.52995,1.909336,,,,
1587,,,,4.130925,2.487339,1.862465,,,,
1589,,,,4.171405,2.454316,1.814528,,,,
1585,0.043282,5.125461,8.053864,,,,,,,
1587,0.11029,5.134987,7.746867,,,,,,,
1589,0.191657,5.282639,7.430424,,,,,,,
1588,,,,,,,22.649319,-68.570122,-22.566784,
1592,0.225161,5.377898,7.099812,,,,,,,
1592,,,,4.198037,2.424489,1.764461,,,,
1594,0.349605,5.511261,6.825875,,,,,,,
1597,0.407041,5.658914,6.433864,,,,,,,
1594,,,,4.218277,2.393596,1.712263,,,,
1597,,,,4.22893,2.361638,1.656869,,,,
1599,0.517126,5.777987,6.018237,,,,,,,
1599,,,,4.232125,2.328615,1.596149,,,,
1598,,,,,,,22.239624,-70.430496,-19.623358,
1602,0.521912,5.892299,5.682902,,,,,,,
1602,,,,4.225734,2.292396,1.536494,,,,
1604,,,,4.21082,2.260438,1.472578,,,,
1604,0.474048,5.949454,5.347566,,,,,,,
1607,,,,4.19058,2.227415,1.410793,,,,
1607,0.536269,6.054239,5.0264,,,,,,,
1608,,,,,,,21.580849,-71.365463,-16.233795,
1609,,,,4.157557,2.192261,1.352204,,,,
1609,0.5602,6.154262,4.700511,,,,,,,
1612,0.531482,6.13521,4.322668,,,,,,,
1612,,,,4.122403,2.154977,1.297875,,,,
1614,0.488404,6.173314,3.98261,,,,,,,
1614,,,,4.077662,2.115562,1.243547,,,,
1617,0.469121,6.208611,3.717103,,,,,,,
1617,,,,4.025453,2.067557,1.188163,,,,
1618,,,,,,,20.837667,-71.747406,-12.709614,
1619,0.512192,6.313399,3.348705,,,,,,,
1619,,,,3.967774,2.024788,1.131725,,,,
1622,,,,3.897466,1.968329,1.071005,,,,
1622,0.53133,6.327691,2.970861,,,,,,,
1624,,,,3.820767,1.907609,1.008155,,,,
1624,0.569614,6.461056,2.644971,,,,,,,
1627,,,,3.743003,1.844758,0.934652,,,,
1627,0.603112,6.603947,2.38048,,,,,,,
1629,0.612678,6.594424,2.139604,,,,,,,
1629,,,,3.660978,1.764863,0.862214,,,,
1632,0.560021,6.627767,1.875113,,,,,,,
1628,,,,,,,19.95997,-71.939339,-9.021855,
1632,,,,3.567235,1.688164,0.790841,,,,
1634,0.540869,6.761132,1.610621,,,,,,,
1634,,,,3.46923,1.602943,0.723729,,,,
1637,0.545649,6.851631,1.539775,,,,,,,
1637,,,,3.364835,1.512395,0.658748,,,,
1638,,,,,,,19.166679,-72.684288,-5.468711,
1639,0.536069,6.956419,1.407528,,,,,,,
1639,,,,3.256178,1.417587,0.591637,,,,
1642,,,,3.147521,1.317452,0.518134,,,,
1644,,,,3.04206,1.222643,0.445696,,,,
1642,0.502558,7.051681,1.327235,,,,,,,
1644,0.545629,7.018343,1.209158,,,,,,,
1646,,,,,,,,,,367.179291
1648,,,,,,,18.611443,-72.678474,-3.689836,
1647,,,,2.939794,1.121443,0.366866,,,,
1649,,,,2.836464,1.00959,0.286972,,,,
1647,0.622203,7.070737,1.119419,,,,,,,
1649,0.665274,7.123133,1.086357,,,,,,,
1652,0.780139,7.185054,1.147755,,,,,,,
1654,0.856714,7.256501,1.246937,,,,,,,
1657,0.842348,7.327948,1.407519,,,,,,,
1652,,,,2.735264,0.901999,0.210273,,,,
1654,,,,2.635129,0.806125,0.128247,,,,
1657,,,,2.547777,0.717708,0.044091,,,,
1659,0.861487,7.380343,1.634223,,,,,,,
1658,,,,,,,18.279852,-72.885056,-1.317122,
1659,,,,2.465752,0.64527,-0.042195,,,,
1662,0.909344,7.504183,1.931772,,,,,,,
1662,,,,2.39651,0.579223,-0.128481,,,,
1664,0.880619,7.57563,2.106523,,,,,,,
1664,,,,2.334725,0.518503,-0.214768,,,,
1667,0.784885,7.570869,2.285996,,,,,,,
1667,,,,2.284657,0.471632,-0.289336,,,,
1668,,,,,,,18.501265,-74.04882,1.026385,
1669,0.760947,7.537531,2.47964,,,,,,,
1669,,,,2.250569,0.434347,-0.361774,,,,
1678,,,,,,,18.559956,-74.100655,3.329903,
1672,,,,2.225003,0.400259,-0.431016,,,,
1674,,,,2.205828,0.374692,-0.491736,,,,
1672,0.679572,7.542297,2.635498,,,,,,,
1677,,,,2.185587,0.365105,-0.54926,,,,
1674,0.612556,7.470856,2.748849,,,,,,,
1679,,,,2.169609,0.353387,-0.600393,,,,
1677,0.4546,7.385125,2.687449,,,,,,,
1679,0.334934,7.380365,2.545756,,,,,,,
1682,,,,2.152564,0.34806,-0.64833,,,,
1684,,,,2.125933,0.335277,-0.687744,,,,
1682,0.220055,7.332738,2.371003,,,,,,,
1684,0.086031,7.34703,2.13485,,,,,,,
1687,,,,2.100366,0.310776,-0.720768,,,,
1687,-0.014489,7.404187,1.775898,,,,,,,
1688,,,,,,,19.444595,-74.010612,4.574034,
1689,-0.191591,7.528027,1.355547,,,,,,,
1692,-0.35912,7.513741,1.02021,,,,,,,
1689,,,,2.069474,0.275622,-0.743138,,,,
1692,,,,2.027928,0.22449,-0.762313,,,,
1694,-0.473999,7.618529,0.656536,,,,,,,
1694,,,,1.977861,0.158443,-0.777227,,,,
1696,,,,1.920337,0.077483,-0.79001,,,,
1696,-0.521869,7.675687,0.24563,,,,,,,
1699,-0.627176,7.766186,-0.103875,,,,,,,
1698,,,,,,,20.056076,-72.806931,6.103029,
1699,,,,1.860682,-0.011999,-0.797467,,,,
1701,-0.636755,7.766189,-0.382535,,,,,,,
1701,,,,1.79144,-0.100416,-0.801728,,,,
1704,-0.655907,7.799532,-0.618688,,,,,,,
1704,,,,1.707284,-0.201616,-0.81238,,,,
1706,-0.651128,7.875742,-0.845395,,,,,,,
1706,,,,1.614606,-0.304947,-0.819837,,,,
1708,,,,,,,20.426733,-72.145111,8.162748,
1709,-0.636775,7.918611,-1.095717,,,,,,,
1709,,,,1.515537,-0.409343,-0.833685,,,,
1711,,,,1.40901,-0.513739,-0.848599,,,,
1711,-0.603278,8.032925,-1.223241,,,,,,,
1718,,,,,,,21.046473,-72.408699,9.776327,
1714,-0.541062,8.051979,-1.279918,,,,,,,
1714,,,,1.297158,-0.612809,-0.87097,,,,
1716,-0.435769,8.066271,-1.336596,,,,,,,
1719,-0.335263,8.199636,-1.454673,,,,,,,
1716,,,,1.182109,-0.716139,-0.892275,,,,
1719,,,,1.06493,-0.81947,-0.927429,,,,
1721,-0.201252,8.294897,-1.431059,,,,,,,
1724,-0.02895,8.318714,-1.530245,,,,,,,
1721,,,,0.94349,-0.918539,-0.962582,,,,
1724,,,,0.827376,-1.024001,-1.004128,,,,
1726,0.114634,8.356821,-1.440508,,,,,,,
1726,,,,0.709132,-1.132658,-1.048869,,,,
1729,0.358731,8.394928,-1.360218,,,,,,,
1728,,,,,,,21.991444,-72.683434,10.724566,
1729,,,,0.595149,-1.239184,-1.09574,,,,
1731,0.564537,8.466375,-1.355497,,,,,,,
1731,,,,0.486492,-1.352102,-1.145808,,,,
1738,,,,,,,23.242565,-72.038559,10.340071,
1734,0.76077,8.490192,-1.402728,,,,,,,
1736,1.033585,8.490194,-1.40273,,,,,,,
1734,,,,0.373574,-1.463955,-1.206527,,,,
1739,1.239392,8.547354,-1.4169,,,,,,,
1736,,,,0.264917,-1.587525,-1.273639,,,,
1739,,,,0.151999,-1.727075,-1.351403,,,,
1741,,,,0.03482,-1.876212,-1.43769,,,,
1741,1.426052,8.542593,-1.506639,,,,,,,
1744,,,,-0.079163,-2.041328,-1.53889,,,,
1744,1.732372,8.5807,-1.506641,,,,,,,
1746,1.885528,8.518784,-1.483027,,,,,,,
1746,,,,-0.196342,-2.218162,-1.645416,,,,
1748,,,,,,,24.652279,-71.771973,9.953272,
1749,2.158344,8.514023,-1.553874,,,,,,,
1749,,,,-0.317782,-2.402452,-1.757269,,,,
1751,2.359363,8.499737,-1.610551,,,,,,,
1751,,,,-0.440287,-2.605918,-1.869121,,,,
1754,2.440725,8.414007,-1.539707,,,,,,,
1754,,,,-0.562793,-2.821101,-1.9863,,,,
1756,2.584308,8.414009,-1.383849,,,,,,,
1756,,,,-0.685298,-3.041611,-2.10561,,,,
1758,,,,,,,26.146397,-72.058403,9.431855,
1759,2.684815,8.404486,-1.105191,,,,,,,
1759,,,,-0.803542,-3.266382,-2.22918,,,,
1761,2.646517,8.475933,-0.765135,,,,,,,
1761,,,,-0.915395,-3.463455,-2.351686,,,,
1764,2.498133,8.494987,-0.330617,,,,,,,
1764,,,,-1.01766,-3.641355,-2.466734,,,,
1766,2.325818,8.399731,-0.004729,,,,,,,
1766,,,,-1.111403,-3.789426,-2.578587,,,,
1768,,,,,,,27.99786,-71.79882,7.745645,
1769,2.148716,8.423548,0.188913,,,,,,,
1769,,,,-1.198755,-3.912997,-2.684048,,,,
1771,,,,-1.277585,-4.02698,-2.782052,,,,
1771,1.985974,8.356871,0.302265,,,,,,,
1774,,,,-1.358545,-4.128181,-2.870469,,,,
1774,1.650923,8.218746,0.410893,,,,,,,
1776,1.445103,8.166357,0.467568,,,,,,,
1776,,,,-1.432048,-4.226185,-2.951429,,,,
1779,1.272788,8.066338,0.580919,,,,,,,
1778,,,,,,,30.518368,-70.491409,6.048993,
1779,,,,-1.503421,-4.320993,-3.028128,,,,
1781,,,,-1.571597,-4.408345,-3.095239,,,,
1781,0.971241,7.885348,0.637594,,,,,,,
1784,0.731917,7.713885,0.750946,,,,,,,
1784,,,,-1.638709,-4.497828,-3.151698,,,,
1786,0.521311,7.623392,0.854851,,,,,,,
1786,,,,-1.704755,-4.574526,-3.199635,,,,
1788,,,,,,,33.313988,-69.558136,3.715964,
1789,,,,-1.766541,-4.638442,-3.236919,,,,
1789,0.248482,7.432876,1.043771,,,,,,,
1795,,,,,,,,,,95.361328
1791,-0.091355,7.309042,1.048493,,,,,,,
1791,,,,-1.832587,-4.686379,-3.265682,,,,
1794,-0.440766,7.180445,1.161844,,,,,,,
1794,,,,-1.907156,-4.721533,-3.289117,,,,
1796,-0.77103,7.037559,1.227965,,,,,,,
1796,,,,-1.98492,-4.744969,-3.29977,,,,
1799,-1.063004,6.985169,1.270471,,,,,,,
1798,,,,,,,35.568794,-67.655914,0.793702,
1799,,,,-2.064815,-4.762013,-3.310423,,,,
1801,-1.417201,6.894675,1.379099,,,,,,,
1803,-1.718747,6.799419,1.49245,,,,,,,
1801,,,,-2.14471,-4.768405,-3.311488,,,,
1803,,,,-2.224604,-4.763078,-3.304031,,,,
1806,-1.919781,6.670822,1.568018,,,,,,,
1806,,,,-2.30876,-4.743904,-3.292313,,,,
1808,,,,,,,37.723366,-66.479691,-2.070634,
1808,-2.173464,6.623195,1.653031,,,,,,,
1808,,,,-2.398242,-4.716207,-3.276334,,,,
1811,-2.345779,6.613672,1.653029,,,,,,,
1811,,,,-2.496246,-4.678923,-3.257159,,,,
1813,-2.494163,6.485075,1.709704,,,,,,,
1813,,,,-2.600642,-4.642704,-3.233723,,,,
1816,-2.695196,6.389819,1.756933,,,,,,,
1816,,,,-2.702908,-4.611812,-3.213483,,,,
1818,,,,,,,40.021591,-65.484634,-5.56238,
1818,-2.838794,6.304088,1.775824,,,,,,,
1818,,,,-2.815825,-4.595832,-3.184721,,,,
1821,-2.953673,6.23741,1.823053,,,,,,,
1821,,,,-2.931939,-4.595832,-3.157024,,,,
1823,,,,-3.054445,-4.612877,-3.127197,,,,
1823,-3.006329,6.127864,1.813605,,,,,,,
1826,-3.00155,6.037371,1.832496,,,,,,,
1826,,,,-3.180146,-4.650161,-3.095239,,,,
1828,-3.097283,5.827804,1.865556,,,,,,,
1828,,,,-3.300521,-4.711946,-3.062216,,,,
1828,,,,,,,41.854259,-64.082481,-9.314143,
1831,-3.020709,5.661103,1.922231,,,,,,,
1831,,,,-3.41983,-4.797168,-3.030258,,,,
1833,,,,-3.54127,-4.900498,-2.999365,,,,
1833,-2.91063,5.508691,2.021413,,,,,,,
1836,-2.757473,5.294361,2.172549,,,,,,,
1836,,,,-3.652058,-5.029396,-2.972734,,,,
1838,,,,,,,43.75943,-63.033287,-13.980238,
1838,,,,-3.759649,-5.168945,-2.945037,,,,
1838,-2.551666,5.04669,2.356745,,,,,,,
1841,-2.365006,4.884752,2.710971,,,,,,,
1841,,,,-3.858719,-5.321278,-2.918405,,,,
1843,-2.187918,4.775207,3.126597,,,,,,,
1843,,,,-3.952462,-5.485329,-2.901361,,,,
1846,,,,-4.035553,-5.646183,-2.888578,,,,
1846,-1.986898,4.656136,3.561114,,,,,,,
1848,,,,,,,45.421604,-61.052811,-18.509411,
1848,-1.781092,4.54659,3.995631,,,,,,,
1848,,,,-4.109056,-5.802777,-2.87686,,,,
1851,,,,-4.176167,-5.95298,-2.869403,,,,
1851,-1.541781,4.427519,4.519886,,,,,,,
1853,-1.331189,4.308448,5.025249,,,,,,,
1853,,,,-4.233692,-6.09679,-2.869403,,,,
1856,-1.125383,4.260821,5.365306,,,,,,,
1856,,,,-4.280563,-6.226752,-2.873664,,,,
1858,,,,,,,45.786465,-58.601128,-23.328152,
1858,-0.886072,4.132225,5.752594,,,,,,,
1858,,,,-4.322108,-6.346062,-2.875795,,,,
1861,-0.732916,4.022679,5.988744,,,,,,,
1861,,,,-4.364719,-6.461111,-2.885382,,,,
1863,-0.522323,3.903608,6.187109,,,,,,,
1863,,,,-4.406264,-6.566572,-2.89923,,,,
1866,-0.36438,3.846455,6.324076,,,,,,,
1866,,,,-4.442483,-6.662446,-2.920536,,,,
1868,,,,,,,45.984962,-56.304764,-28.882011,
1868,-0.220797,3.784539,6.479935,,,,,,,
1868,,,,-4.481898,-6.756189,-2.945037,,,,
1871,,,,-4.520247,-6.849932,-2.968472,,,,
1873,,,,-4.556466,-6.94048,-2.988713,,,,
1871,-0.048495,3.622601,6.541333,,,,,,,
1873,0.023294,3.508293,6.631069,,,,,,,
1876,0.075937,3.470193,6.69719,,,,,,,
1876,,,,-4.595881,-7.026766,-3.017475,,,,
1878,0.152511,3.274914,6.753865,,,,,,,
1878,,,,,,,45.601387,-53.605431,-34.061817,
1878,,,,-4.638492,-7.109857,-3.04091,,,,
1881,0.142932,3.117739,6.81054,,,,,,,
1881,,,,-4.681102,-7.180164,-3.064346,,,,
1883,,,,-4.726909,-7.245145,-3.08139,,,,
1883,0.138139,2.879594,6.867215,,,,,,,
1886,,,,-4.771649,-7.297344,-3.094174,,,,
1886,0.02326,2.670027,7.027796,,,,,,,
1888,-0.091619,2.379489,7.136425,,,,,,,
1888,,,,-4.816391,-7.339954,-3.0995,,,,
1888,,,,,,,45.056164,-50.530769,-39.084709,
1891,-0.220858,2.136581,7.136423,,,,,,,
1893,-0.474541,1.955592,7.245052,,,,,,,
1896,-0.661215,1.874624,7.348957,,,,,,,
1898,-0.819171,1.75079,7.537877,,,,,,,
1898,,,,,,,43.398258,-46.811928,-44.589706,
1891,,,,-4.864327,-7.366586,-3.089913,,,,
1893,,,,-4.920786,-7.382565,-3.071803,,,,
1896,,,,-4.982572,-7.384695,-3.047302,,,,
1898,,,,-5.048618,-7.371912,-3.012148,,,,
1901,-0.977128,1.622193,7.774027,,,,,,,
1901,,,,-5.11573,-7.354868,-2.972733,,,,
1903,,,,-5.182841,-7.345281,-2.933319,,,,
1903,-1.135084,1.412626,7.996009,,,,,,,
1905,-1.321758,1.288792,8.236881,,,,,,,
1905,,,,-5.248888,-7.33889,-2.885382,,,,
1908,,,,-5.302151,-7.334629,-2.831053,,,,
1908,,,,,,,41.457462,-43.252541,-50.195751,
1908,-1.417492,1.174483,8.543877,,,,,,,
1910,,,,-5.337305,-7.333564,-2.771399,,,,
1913,,,,-5.357544,-7.325041,-2.703222,,,,
1910,-1.537158,0.960153,8.997287,,,,,,,
1913,-1.666396,0.78869,9.422358,,,,,,,
1915,-1.786061,0.593411,9.743523,,,,,,,
1915,,,,-5.359675,-7.322911,-2.625458,,,,
1918,-1.944017,0.407659,9.984396,,,,,,,
1918,,,,-5.354349,-7.321846,-2.53491,,,,
1918,,,,,,,39.271713,-39.501381,-55.313362,
1920,-1.939238,0.236195,10.385852,,,,,,,
1920,,,,-5.343697,-7.322911,-2.432645,,,,
1923,-1.90574,0.164753,10.848707,,,,,,,
1923,,,,-5.317065,-7.319715,-2.319727,,,,
1925,-1.838738,0.088549,11.141534,,,,,,,
1928,,,,,,,36.25893,-35.155495,-59.568493,
1928,-1.719086,0.074263,11.443807,,,,,,,
1925,,,,-5.265932,-7.317585,-2.198287,,,,
1928,,,,-5.203082,-7.306932,-2.07152,,,,
1930,,,,-5.123187,-7.299476,-1.949015,,,,
1933,,,,-5.031574,-7.284562,-1.825444,,,,
1930,-1.51328,0.09808,11.831094,,,,,,,
1933,-1.25961,0.264786,12.190042,,,,,,,
1935,-0.972436,0.441018,12.492315,,,,,,,
1935,,,,-4.93357,-7.25367,-1.7072,,,,
1938,-0.642185,0.58391,12.804034,,,,,,,
1938,,,,,,,32.199593,-30.736135,-63.51268,
1938,,,,-4.823848,-7.211059,-1.591087,,,,
1940,-0.335865,0.731564,13.210214,,,,,,,
1940,,,,-4.703473,-7.153535,-1.48456,,,,
1943,,,,-4.575642,-7.072575,-1.388686,,,,
1943,-0.015187,0.941136,13.545547,,,,,,,
1944,,,,,,,,,,240.555969
1945,0.22891,1.174524,13.743913,,,,,,,
1948,0.506512,1.360282,13.861988,,,,,,,
1948,,,,,,,27.917698,-26.840956,-67.853806,
1945,,,,-4.446744,-6.973505,-1.301335,,,,
1948,,,,-4.314652,-6.861653,-1.222505,,,,
1950,0.731463,1.446018,13.928108,,,,,,,
1950,,,,-4.181494,-6.74767,-1.153263,,,,
1953,0.951628,1.584146,13.913938,,,,,,,
1953,,,,-4.048336,-6.631557,-1.092543,,,,
1955,,,,-3.915178,-6.511181,-1.038215,,,,
1955,1.099998,1.665119,13.729738,,,,,,,
1958,1.339309,1.688936,13.639999,,,,,,,
1958,,,,-3.786282,-6.390807,-0.991343,,,,
1958,,,,,,,23.763954,-23.353518,-70.651131,
1960,1.492465,1.712754,13.602213,,,,,,,
1960,,,,-3.662711,-6.269367,-0.952994,,,,
1963,1.564254,1.646075,13.545536,,,,,,,
1963,,,,-3.544467,-6.146862,-0.915709,,,,
1965,1.650401,1.550819,13.361336,,,,,,,
1965,,,,-3.430484,-6.008378,-0.882686,,,,
1967,,,,,,,19.517763,-20.058491,-72.653114,
1968,,,,-3.327153,-5.869894,-0.849663,,,,
1968,1.760481,1.550821,13.219645,,,,,,,
1970,1.760474,1.550824,13.271595,,,,,,,
1973,1.774826,1.512723,13.257425,,,,,,,
1970,,,,-3.23341,-5.721822,-0.820901,,,,
1973,,,,-3.144993,-5.558837,-0.790008,,,,
1975,1.765247,1.488911,13.214916,,,,,,,
1975,,,,-3.061903,-5.392656,-0.754854,,,,
1977,,,,,,,15.404125,-17.693007,-74.467163,
1978,1.655154,1.431758,13.281038,,,,,,,
1978,,,,-2.99053,-5.219018,-0.71757,,,,
1980,1.61207,1.374606,13.42745,,,,,,,
1980,,,,-2.919157,-5.041119,-0.670699,,,,
1983,1.578559,1.331742,13.550248,,,,,,,
1983,,,,-2.842458,-4.858959,-0.615305,,,,
1985,1.564193,1.293641,13.578585,,,,,,,
1988,1.511536,1.279355,13.649428,,,,,,,
1985,,,,-2.766824,-4.677865,-0.558846,,,,
1988,,,,-2.682669,-4.491443,-0.502387,,,,
1990,1.482811,1.226965,13.739164,,,,,,,
1990,,,,-2.589991,-4.31461,-0.441667,,,,
1987,,,,,,,11.295216,-14.796881,-75.389168,
1993,1.458873,1.217442,13.720271,,,,,,,
1995,1.482798,1.231733,13.7675,,,,,,,
1993,,,,-2.498378,-4.129254,-0.377751,,,,
1995,,,,-2.40357,-3.95242,-0.308509,,,,
1998,,,,-2.3045,-3.775587,-0.242463,,,,
1998,1.387064,1.255551,13.866682,,,,,,,
1997,,,,,,,7.869694,-12.314304,-76.546265,
2000,,,,-2.2033,-3.589166,-0.177481,,,,
2003,,,,-2.107426,-3.404875,-0.113566,,,,
2000,1.339194,1.179346,13.951696,,,,,,,
2003,1.291324,1.060275,13.880849,,,,,,,
2005,,,,-2.006226,-3.222715,-0.044323,,,,
2005,1.276958,1.007885,13.824171,,,,,,,
2008,1.23866,0.907866,13.791109,,,,,,,
2008,,,,-1.908222,-3.037359,0.025984,,,,
2007,,,,,,,5.113426,-10.996592,-76.968483,
2010,1.162072,0.879291,13.696647,,,,,,,
2012,1.118988,0.879293,13.493555,,,,,,,
2015,1.090263,0.831667,13.356586,,,,,,,
2010,,,,-1.811283,-2.85946,0.096291,,,,
2012,,,,-1.716475,-2.69328,0.166599,,,,
2015,,,,-1.630188,-2.537751,0.239037,,,,
2017,1.051966,0.73641,13.233785,,,,,,,
2017,,,,-1.542837,-2.397136,0.315736,,,,
2017,,,,,,,3.394577,-9.761192,-77.237808,
2020,,,,-1.458681,-2.265044,0.388174,,,,
2020,1.023241,0.755465,13.002356,,,,,,,
2022,1.051952,0.731653,12.827601,,,,,,,
2022,,,,-1.379852,-2.144669,0.462742,,,,
2025,1.047159,0.655448,12.761478,,,,,,,
2025,,,,-1.303153,-2.032816,0.544767,,,,
2027,1.07587,0.684028,12.648123,,,,,,,
2027,,,,-1.229649,-1.92629,0.619336,,,,
2027,,,,,,,1.618444,-8.158108,-77.365852,
2030,,,,-1.158277,-1.819764,0.696035,,,,
2032,,,,-1.087969,-1.718564,0.773799,,,,
2030,1.152445,0.655454,12.501708,,,,,,,
2032,1.190729,0.536382,12.322231,,,,,,,
2035,1.257731,0.483992,12.256108,,,,,,,
2035,,,,-1.021923,-1.628017,0.843041,,,,
2037,,,,-0.953746,-1.543861,0.913349,,,,
2037,,,,,,,-0.404325,-6.890942,-78.052109,
2037,1.363024,0.498284,12.175815,,,,,,,
2040,1.559258,0.469709,12.081353,,,,,,,
2042,1.67891,0.364927,12.053013,,,,,,,
2045,1.851211,0.383981,11.958551,,,,,,,
2040,,,,-0.889831,-1.465032,0.975134,,,,
2042,,,,-0.822719,-1.386202,1.033723,,,,
2045,,,,-0.756673,-1.306308,1.086987,,,,
2047,2.047445,0.317303,11.949103,,,,,,,
2047,,,,-0.691692,-1.223217,1.132793,,,,
2047,,,,,,,-1.740662,-6.034385,-79.128059,
2050,2.21496,0.255387,11.78852,,,,,,,
2052,2.420766,0.250627,11.722396,,,,,,,
2055,2.56435,0.260155,11.722395,,,,,,,
2050,,,,-0.629906,-1.150779,1.169012,,,,
2052,,,,-0.570252,-1.076211,1.208427,,,,
2055,,,,-0.510597,-0.997382,1.237189,,,,
2057,2.722293,0.217291,11.793238,,,,,,,
2057,,,,-0.456268,-0.912161,1.263821,,,,
2057,,,,,,,-2.606717,-5.054288,-79.051949,
2060,2.841945,0.250635,11.84519,,,,,,,
2060,,,,-0.400875,-0.824809,1.289387,,,,
2062,2.91852,0.250637,11.963264,,,,,,,
2062,,,,-0.346546,-0.731066,1.311757,,,,
2065,2.966376,0.193485,12.138016,,,,,,,
2065,,,,-0.293283,-0.627735,1.328802,,,,
2067,3.009447,0.188724,12.213582,,,,,,,
2067,,,,-0.237889,-0.529731,1.351172,,,,
2067,,,,,,,-3.550003,-4.251868,-78.953545,
2070,3.071662,0.174438,12.355272,,,,,,,
2070,,,,-0.178235,-0.428531,1.367151,,,,
2072,,,,-0.11858,-0.32094,1.381,,,,
2072,3.172169,0.183967,12.506407,,,,,,,
2075,,,,-0.048273,-0.209087,1.394848,,,,
2075,3.243957,0.164918,12.553637,,,,,,,
2077,3.358823,0.136343,12.610312,,,,,,,
2077,,,,0.0231,-0.101496,1.404435,,,,
2077,,,,,,,-3.952462,-4.418401,-78.265907,
2080,3.425825,0.055375,12.615033,,,,,,,
2082,3.5024,0.074429,12.681153,,,,,,,
2080,,,,0.096603,0.008226,1.416153,,,,
2082,,,,0.176498,0.120079,1.425741,,,,
2087,,,,,,,-4.162249,-3.666535,-78.431541,
2085,,,,0.258523,0.230866,1.428936,,,,
2085,3.583761,0.15064,12.808675,,,,,,,
2087,,,,0.335222,0.354437,1.428936,,,,
2087,3.631618,0.117302,12.728381,,,,,,,
2096,,,,,,,,,,379.00827
2090,3.617252,0.160171,12.747272,,,,,,,
2090,,,,0.414052,0.469485,1.430002,,,,
2092,3.612459,0.183988,12.870069,,,,,,,
2092,,,,0.48862,0.595186,1.424675,,,,
2095,3.578948,0.160176,12.851176,,,,,,,
2095,,,,0.557862,0.723018,1.420414,,,,
2097,3.483214,0.141127,12.799221,,,,,,,
2097,,,,0.629235,0.850849,1.411892,,,,
2097,,,,,,,-4.150073,-3.654751,-79.04998,
2100,3.425771,0.050634,12.84645,,,,,,,
2100,,,,0.696347,0.973354,1.404436,,,,
2102,3.315678,-0.006519,12.780326,,,,,,,
2102,,,,0.761328,1.094794,1.400174,,,,
2105,3.181653,-0.073198,12.75671,,,,,,,
2105,,,,0.826309,1.207712,1.396979,,,,
2107,3.143356,-0.101773,12.629188,,,,,,,
2107,,,,0.89129,1.312108,1.393783,,,,
2107,,,,,,,-3.606201,-4.620757,-78.615364,
2110,3.038049,-0.092244,12.539448,,,,,,,
2112,2.932743,-0.135108,12.468601,,,,,,,
2110,,,,0.957336,1.404786,1.398044,,,,
2115,2.837009,-0.168446,12.482768,,,,,,,
2112,,,,1.021252,1.491072,1.404436,,,,
2115,,,,1.078776,1.569901,1.415088,,,,
2117,2.693412,-0.111288,12.529998,,,,,,,
2117,,,,1.13417,1.650861,1.427871,,,,
2117,,,,,,,-2.46639,-5.450245,-78.126595,
2119,,,,1.195955,1.728625,1.442785,,,,
2122,,,,1.258806,1.81065,1.459829,,,,
2124,,,,1.322721,1.899067,1.485396,,,,
2127,,,,,,,-1.567126,-6.60977,-78.505249,
2119,2.583319,-0.068419,12.600842,,,,,,,
2127,,,,1.391963,1.996006,1.513093,,,,
2122,2.406218,-0.077942,12.733086,,,,,,,
2124,2.22433,-0.06365,12.794483,,,,,,,
2127,2.008937,-0.158907,12.851158,,,,,,,
2129,1.86534,-0.187482,12.969233,,,,,,,
2129,,,,1.462271,2.095076,1.54505,,,,
2132,,,,1.540035,2.194145,1.5834,,,,
2134,,,,1.615669,2.29641,1.629206,,,,
2137,,,,1.694498,2.401871,1.681404,,,,
2132,1.755247,-0.192242,13.021184,,,,,,,
2134,1.640368,-0.187476,13.025906,,,,,,,
2137,1.520703,-0.225577,13.077858,,,,,,,
2139,1.491978,-0.220812,13.115641,,,,,,,
2139,,,,1.779719,2.508398,1.734667,,,,
2137,,,,,,,0.129007,-8.181646,-79.598457,
2142,1.434535,-0.216046,13.16287,,,,,,,
2142,,,,1.86494,2.613859,1.794322,,,,
2144,1.463246,-0.235095,13.328175,,,,,,,
2144,,,,1.954423,2.729972,1.855042,,,,
2147,1.424949,-0.196989,13.436803,,,,,,,
2147,,,,2.042839,2.857804,1.915762,,,,
2147,,,,,,,1.605947,-9.22233,-78.995308,
2149,,,,2.135517,2.996288,1.977548,,,,
2152,,,,2.231391,3.141164,2.038268,,,,
2154,,,,2.331526,3.293496,2.097922,,,,
2149,1.448874,-0.182697,13.578492,,,,,,,
2152,1.482371,-0.139828,13.691844,,,,,,,
2154,1.573305,-0.125536,13.762687,,,,,,,
2157,1.64988,-0.08743,13.80047,,,,,,,
2157,,,,2.43166,3.443698,2.155447,,,,
2157,,,,,,,3.288545,-10.281244,-78.268814,
2167,,,,,,,5.560395,-12.473806,-78.028702,
2159,,,,2.536056,3.594966,2.204449,,,,
2162,,,,2.639387,3.739841,2.255581,,,,
2164,,,,2.742717,3.886847,2.301388,,,,
2159,1.793463,-0.087427,13.890206,,,,,,,
2162,1.850893,-0.116002,13.86659,,,,,,,
2164,1.941827,-0.163629,13.809912,,,,,,,
2167,,,,2.840721,4.035985,2.346129,,,,
2167,2.023188,-0.154101,13.861865,,,,,,,
2169,2.032754,-0.163624,13.786294,,,,,,,
2169,,,,2.93553,4.185122,2.386609,,,,
2172,2.066252,-0.216014,13.602095,,,,,,,
2172,,,,3.020751,4.328932,2.429219,,,,
2174,2.051886,-0.249352,13.380111,,,,,,,
2174,,,,3.094254,4.466351,2.475026,,,,
2177,2.094956,-0.23506,13.134512,,,,,,,
2177,,,,3.152844,4.598443,2.518702,,,,
2177,,,,,,,8.178234,-15.080561,-76.739883,
2179,2.123667,-0.163613,12.893636,,,,,,,
2179,,,,3.200781,4.722013,2.555986,,,,
2182,2.118874,-0.011196,12.648037,,,,,,,
2182,,,,3.245522,4.82854,2.586878,,,,
2184,2.171517,0.045962,12.506344,,,,,,,
2184,,,,3.27961,4.92974,2.617771,,,,
2187,,,,3.313699,5.011765,2.644403,,,,
2187,2.286383,0.088831,12.402436,,,,,,,
2187,,,,,,,11.503534,-18.289125,-75.524864,
2189,2.420394,0.060256,12.36465,,,,,,,
2192,2.540046,-0.001659,12.359926,,,,,,,
2194,2.621407,0.060262,12.416601,,,,,,,
2197,2.774564,0.131709,12.515783,,,,,,,
2189,,,,3.347787,5.09379,2.664643,,,,
2192,,,,3.377614,5.171555,2.682752,,,,
2194,,,,3.404246,5.254645,2.696601,,,,
2197,,,,,,,14.990469,-21.87303,-74.466766,
2197,,,,3.430877,5.347323,2.705123,,,,
2199,2.884643,0.184104,12.577181,,,,,,,
2202,2.999508,0.274603,12.643303,,,,,,,
2204,3.047365,0.336524,12.770823,,,,,,,
2207,3.138299,0.407971,12.827497,,,,,,,
2199,,,,3.456444,5.451718,2.710449,,,,
2202,,,,3.486271,5.555049,2.706188,,,,
2204,,,,3.520359,5.664771,2.699797,,,,
2207,,,,3.555513,5.779819,2.684883,,,,
2207,,,,,,,18.234411,-24.525637,-73.271744,
2209,3.229233,0.465129,12.888896,,,,,,,
2212,3.253158,0.550865,12.917233,,,,,,,
2214,3.281869,0.598497,12.893617,,,,,,,
2209,,,,3.592797,5.892737,2.668904,,,,
2212,,,,3.62582,6.00459,2.644403,,,,
2214,,,,3.658844,6.102594,2.618837,,,,
2217,,,,3.698258,6.192076,2.585813,,,,
2217,3.296221,0.641366,12.865277,,,,,,,
2217,,,,,,,21.350735,-27.930754,-70.627304,
2219,3.233992,0.622317,12.898337,,,,,,,
2219,,,,3.734477,6.268775,2.549594,,,,
2221,3.152617,0.674713,12.879443,,,,,,,
2221,,,,3.773892,6.333756,2.514441,,,,
2224,3.004234,0.636612,12.884165,,,,,,,
2224,,,,3.815437,6.385953,2.479287,,,,
2226,,,,3.864439,6.412585,2.440938,,,,
2226,2.874995,0.650903,12.747195,,,,,,,
2227,,,,,,,24.365753,-31.325281,-68.121849,
2229,2.712253,0.693772,12.619672,,,,,,,
2229,,,,3.916637,6.428564,2.407914,,,,
2231,2.597374,0.736642,12.41658,,,,,,,
2231,,,,3.96777,6.421107,2.377022,,,,
2234,2.401127,0.817614,12.142643,,,,,,,
2234,,,,4.022099,6.392345,2.347195,,,,
2236,2.233598,0.87001,11.778969,,,,,,,
2236,,,,4.073231,6.33482,2.318433,,,,
2237,,,,,,,27.792084,-34.756264,-65.369698,
2239,1.903333,0.927168,11.462524,,,,,,,
2241,1.764522,0.993852,11.117741,,,,,,,
2244,1.510839,1.070062,10.725729,,,,,,,
2239,,,,4.119038,6.259187,2.291801,,,,
2244,,,,,,,,,,437.457733
2241,,,,4.159517,6.157987,2.264104,,,,
2244,,,,4.194671,6.033351,2.241734,,,,
2246,1.266728,1.131983,10.41873,,,,,,,
2246,,,,4.21278,5.896997,2.222559,,,,
2247,,,,,,,30.478832,-38.142593,-62.044292,
2249,,,,4.223433,5.748925,2.20871,,,,
2251,,,,4.220237,5.589135,2.198058,,,,
2254,,,,4.201063,5.424019,2.183144,,,,
2249,1.056122,1.25106,9.998379,,,,,,,
2251,0.888593,1.351084,9.58275,,,,,,,
2254,0.730637,1.508264,9.242691,,,,,,,
2256,0.572681,1.732126,8.827063,,,,,,,
2256,,,,4.165909,5.255708,2.169296,,,,
2257,,,,,,,32.275448,-40.360565,-58.80405,
2259,,,,4.125429,5.086331,2.157578,,,,
2259,0.496092,1.898832,8.496449,,,,,,,
2261,0.323777,2.079827,8.260296,,,,,,,
2261,,,,4.074296,4.913758,2.142664,,,,
2264,0.18018,2.298925,8.024143,,,,,,,
2264,,,,4.015707,4.755033,2.12562,,,,
2266,0.012651,2.413239,7.821052,,,,,,,
2266,,,,3.946464,4.604831,2.10751,,,,
2267,,,,,,,34.257774,-43.142128,-55.559448,
2269,-0.092656,2.670441,7.66519,,,,,,,
2269,,,,3.872961,4.461021,2.091531,,,,
2271,-0.140526,2.980036,7.547113,,,,,,,
2271,,,,3.793066,4.328928,2.072357,,,,
2274,,,,3.718498,4.214944,2.047856,,,,
2274,-0.126174,3.194372,7.504604,,,,,,,
2276,-0.255412,3.337263,7.537664,,,,,,,
2276,,,,3.641799,4.120136,2.020159,,,,
2277,,,,,,,35.907097,-46.446136,-52.386932,
2279,-0.332,3.465865,7.6274,,,,,,,
2279,,,,3.568296,4.053024,1.997788,,,,
2281,-0.346366,3.623045,7.731306,,,,,,,
2281,,,,3.499053,4.005087,1.966896,,,,
2284,,,,3.430877,3.97313,1.932807,,,,
2284,-0.274577,3.813566,7.877718,,,,,,,
2286,-0.29373,3.942169,8.08553,,,,,,,
2286,,,,3.370157,3.969934,1.897654,,,,
2287,,,,,,,36.439331,-48.584167,-48.340656,
2289,-0.303309,3.999327,8.302788,,,,,,,
2289,,,,3.316894,3.985912,1.858239,,,,
2291,,,,3.271087,4.023197,1.819889,,,,
2291,-0.322461,4.051722,8.543661,,,,,,,
2294,-0.322468,4.166036,8.907333,,,,,,,
2294,,,,3.231673,4.093504,1.782605,,,,
2296,-0.298543,4.218431,9.289897,,,,,,,
2296,,,,3.207171,4.189378,1.742125,,,,
2297,,,,,,,37.166405,-51.276978,-44.753853,
2299,-0.355986,4.270826,9.606339,,,,,,,
2299,,,,3.192258,4.309752,1.710167,,,,
2301,-0.442147,4.342273,9.988903,,,,,,,
2301,,,,3.189062,4.459954,1.677144,,,,
2304,-0.595317,4.361328,10.28173,,,,,,,
2304,,,,3.198649,4.62507,1.648382,,,,
2306,-0.729341,4.308938,10.588725,,,,,,,
2306,,,,3.22315,4.798708,1.629207,,,,
2307,,,,,,,38.141476,-54.158592,-41.810089,
2309,-0.911229,4.2756,10.862659,,,,,,,
2309,,,,3.257239,4.968085,1.616424,,,,
2311,-1.030895,4.280365,10.947674,,,,,,,
2311,,,,3.30198,5.1332,1.612163,,,,
2314,-1.117056,4.189872,11.027963,,,,,,,
2314,,,,3.357373,5.290859,1.620685,,,,
2316,-1.184072,4.104141,11.065746,,,,,,,
2316,,,,3.424485,5.439996,1.634534,,,,
2317,,,,,,,39.135128,-55.970093,-37.546085,
2319,-1.203224,4.104144,11.023237,,,,,,,
2319,,,,3.50438,5.57635,1.656904,,,,
2321,,,,3.582144,5.690333,1.687797,,,,
2321,-1.179299,4.104147,10.862653,,,,,,,
2324,-1.184092,4.075572,10.683176,,,,,,,
2324,,,,3.663104,5.776619,1.721885,,,,
2326,-1.179312,4.0851,10.432855,,,,,,,
2326,,,,3.74726,5.838404,1.75917,,,,
2327,,,,,,,39.690353,-57.559814,-33.535435,
2328,-1.193678,4.08034,10.050287,,,,,,,
2328,,,,3.823959,5.868232,1.79965,,,,
2331,-1.184112,4.118446,9.629936,,,,,,,
2331,,,,3.901723,5.865036,1.84013,,,,
2333,-1.145828,4.175605,9.171801,,,,,,,
2333,,,,3.967769,5.826686,1.879544,,,,
2336,,,,4.024229,5.763835,1.917894,,,,
2336,-1.160194,4.337548,8.671159,,,,,,,
2337,,,,,,,40.144268,-59.138954,-29.663765,
2338,-1.141055,4.380417,8.099669,,,,,,,
2338,,,,4.072165,5.665831,1.949852,,,,
2341,-1.093199,4.570938,7.584858,,,,,,,
2341,,,,4.106254,5.539064,1.977549,,,,
2343,-1.097992,4.647148,7.022816,,,,,,,
2343,,,,4.126494,5.393124,1.994593,,,,
2346,-1.08364,4.718595,6.503281,,,,,,,
2346,,,,4.128624,5.223747,1.998854,,,,
2347,,,,,,,40.47665,-61.464699,-24.651899,
2348,-1.035783,4.866249,5.950685,,,,,,,
2348,,,,4.119037,5.03626,1.992462,,,,
2351,,,,4.090275,4.83386,1.976483,,,,
2351,-0.968781,4.951985,5.393366,,,,,,,
2353,-0.940069,5.094876,4.812432,,,,,,,
2356,-0.925717,5.256819,4.325958,,,,,,,
2353,,,,4.05299,4.619742,1.955178,,,,
2356,,,,3.999727,4.398167,1.927481,,,,
2357,,,,,,,40.190983,-62.999168,-20.206968,
2358,-0.901792,5.36637,3.976453,,,,,,,
2358,,,,3.92942,4.182984,1.885936,,,,
2361,,,,3.858047,3.9678,1.837999,,,,
2363,,,,3.777087,3.76327,1.785801,,,,
2361,-0.906585,5.509262,3.693069,,,,,,,
2363,-0.930524,5.571182,3.334118,,,,,,,
2366,-0.901812,5.742651,3.050735,,,,,,,
2366,,,,3.689735,3.56513,1.726147,,,,
2367,,,,,,,39.48378,-63.769432,-15.741799,
2368,-0.916178,5.956987,2.857089,,,,,,,
2371,-0.992767,6.014145,2.710673,,,,,,,
2368,,,,3.594927,3.375514,1.6601,,,,
2371,,,,3.503314,3.20081,1.587662,,,,
2373,-1.007133,6.142748,2.47452,,,,,,,
2373,,,,3.404245,3.032498,1.515224,,,,
2376,-1.031071,6.347558,2.25726,,,,,,,
2376,,,,3.298783,2.872709,1.443852,,,,
2377,,,,,,,38.541836,-65.075676,-11.055125,
2378,-1.031078,6.52379,2.22892,,,,,,,
2378,,,,3.192257,2.724637,1.362892,,,,
2381,-0.988007,6.642866,2.219473,,,,,,,
2381,,,,3.080404,2.588283,1.278736,,,,
2383,-1.035878,6.83815,2.238364,,,,,,,
2383,,,,2.976008,2.479626,1.19245,,,,
2386,-1.102893,6.857204,2.2667,,,,,,,
2386,,,,2.874809,2.385883,1.107229,,,,
2387,,,,,,,37.28299,-65.413521,-7.761999,
2388,-1.141191,6.847681,2.417836,,,,,,,
2388,,,,2.776804,2.31451,1.027334,,,,
2391,,,,2.685192,2.252725,0.946374,,,,
2391,-1.241711,6.904839,2.507572,,,,,,,
2393,-1.265649,6.952471,2.805122,,,,,,,
2393,,,,2.595709,2.206918,0.867544,,,,
2395,,,,,,,,,,343.447357
2396,-1.327879,6.942948,3.031826,,,,,,,
2396,,,,2.51688,2.185613,0.795106,,,,
2397,,,,,,,36.752914,-66.332558,-5.624948,
2398,-1.428399,6.928662,3.310483,,,,,,,
2398,,,,2.442312,2.180287,0.727995,,,,
2401,-1.524133,6.885798,3.551356,,,,,,,
2401,,,,2.383722,2.196265,0.66834,,,,
2403,,,,2.33685,2.214375,0.622534,,,,
2403,-1.610294,6.866749,3.678877,,,,,,,
2406,-1.701241,6.885804,3.721383,,,,,,,
2406,,,,2.295305,2.239941,0.584184,,,,
2407,,,,,,,36.582958,-66.914467,-3.409147,
2408,,,,2.263347,2.272964,0.553292,,,,
2411,,,,2.239911,2.299596,0.528791,,,,
2408,-1.825693,6.82865,3.79695,,,,,,,
2411,-1.964504,6.833416,3.763887,,,,,,,
2413,-2.103315,6.842945,3.759163,,,,,,,
2413,,,,2.223932,2.31877,0.517073,,,,
2416,-2.242126,6.862,3.744992,,,,,,,
2416,,,,2.214345,2.334749,0.511746,,,,
2417,,,,,,,36.432949,-66.951019,-1.074363,
2418,-2.304355,6.857239,3.674145,,,,,,,
2418,,,,2.213279,2.343271,0.510681,,,,
2421,-2.352225,6.876294,3.584406,,,,,,,
2421,,,,2.214345,2.342206,0.514942,,,,
2423,-2.404881,6.88106,3.546621,,,,,,,
2423,,,,2.217541,2.331553,0.522399,,,,
2426,-2.424034,6.900114,3.352975,,,,,,,
2426,,,,2.219671,2.311313,0.527725,,,,
2427,,,,,,,36.28294,-66.987564,1.260422,
2428,-2.414468,6.93822,3.164052,,,,,,,
2431,-2.419261,7.000141,2.956237,,,,,,,
2428,,,,2.219671,2.281485,0.534117,,,,
2431,,,,2.216475,2.23781,0.541574,,,,
2433,-2.366618,6.990618,2.776761,,,,,,,
2433,,,,2.206888,2.186677,0.540509,,,,
2435,-2.256539,7.066828,2.535885,,,,,,,
2435,,,,2.190909,2.116369,0.535182,,,,
2437,,,,,,,35.470573,-66.801773,4.146169,
2438,-2.122528,7.181142,2.257225,,,,,,,
2438,,,,2.169604,2.025822,0.52453,,,,
2440,,,,2.135515,1.920361,0.501094,,,,
2440,-1.907149,7.285929,1.964396,,,,,,,
2443,-1.782711,7.433583,1.652674,,,,,,,
2443,,,,2.097166,1.793594,0.468071,,,,
2445,-1.677418,7.614578,1.270107,,,,,,,
2445,,,,2.049229,1.638066,0.422264,,,,
2447,,,,,,,34.719624,-67.717308,6.932926,
2448,-1.519475,7.819388,1.019785,,,,,,,
2448,,,,1.997031,1.45484,0.367936,,,,
2450,,,,1.933115,1.255636,0.299759,,,,
2450,-1.380678,7.943227,0.726956,,,,,,,
2453,-1.328035,8.028964,0.490803,,,,,,,
2453,,,,1.859612,1.038322,0.221995,,,,
2455,-1.280178,8.090885,0.268819,,,,,,,
2455,,,,1.783978,0.805029,0.13997,,,,
2457,,,,,,,34.525585,-68.110962,8.987453,
2458,-1.217962,8.171858,0.122404,,,,,,,
2458,,,,1.705149,0.561084,0.051553,,,,
2460,-1.141387,8.281408,0.098787,,,,,,,
2460,,,,1.624189,0.313942,-0.044321,,,,
2463,,,,1.544294,0.065736,-0.142325,,,,
2463,-1.150967,8.314753,0.065724,,,,,,,
2465,-1.160546,8.386198,0.122399,,,,,,,
2465,,,,1.461203,-0.170753,-0.241395,,,,
2467,,,,,,,34.471073,-67.952148,10.372277,
2468,-1.11269,8.40049,0.18852,,,,,,,
2468,,,,1.388765,-0.40298,-0.337268,,,,
2470,-1.21321,8.371916,0.311318,,,,,,,
2470,,,,1.32485,-0.620294,-0.435273,,,,
2473,-1.256294,8.429073,0.372716,,,,,,,
2473,,,,1.257738,-0.828021,-0.526885,,,,
2475,-1.3616,8.433838,0.405776,,,,,,,
2475,,,,1.198083,-1.018703,-0.611041,,,,
2477,,,,,,,34.62722,-67.069107,11.374328,
2478,-1.476479,8.405264,0.495512,,,,,,,
2480,-1.600931,8.281429,0.476618,,,,,,,
2478,,,,1.136298,-1.199798,-0.695197,,,,
2480,,,,1.074513,-1.363848,-0.778287,,,,
2483,-1.648801,8.233803,0.377433,,,,,,,
2483,,,,1.004205,-1.521508,-0.851791,,,,
2485,-1.696671,8.171886,0.382155,,,,,,,
2485,,,,0.923245,-1.67171,-0.923163,,,,
2487,,,,,,,35.318375,-66.949074,11.876674,
2488,-1.768473,8.109972,0.320754,,,,,,,
2488,,,,0.842285,-1.814455,-0.995601,,,,
2490,-1.892925,8.1195,0.396321,,,,,,,
2490,,,,0.759194,-1.947613,-1.064843,,,,
2493,-2.036522,8.090925,0.504949,,,,,,,
2493,,,,0.670778,-2.060531,-1.124498,,,,
2495,,,,0.588752,-2.15747,-1.183087,,,,
2495,-2.21841,8.138557,0.533286,,,,,,,
2497,,,,,,,36.492268,-66.481888,11.514474,
2498,-2.52953,8.195715,0.599407,,,,,,,
2498,,,,0.512053,-2.240561,-1.231024,,,,
2500,-2.840649,8.233822,0.69859,,,,,,,
2500,,,,0.442811,-2.304477,-1.265113,,,,
2503,,,,0.382091,-2.35561,-1.289614,,,,
2503,-3.190059,8.105226,0.71748,,,,,,,
2505,-3.510751,7.981391,0.821386,,,,,,,
2505,,,,0.324567,-2.395024,-1.298136,,,,
2507,,,,,,,37.645126,-65.823479,10.836391,
2508,-3.797939,8.000445,0.774154,,,,,,,
2508,,,,0.269173,-2.425917,-1.296005,,,,
2510,,,,0.213779,-2.448288,-1.280026,,,,
2510,-4.152136,7.952818,0.627738,,,,,,,
2513,-4.49676,7.814695,0.36797,,,,,,,
2515,-4.764802,7.809935,0.112925,,,,,,,
2513,,,,0.15732,-2.470658,-1.248068,,,,
2515,,,,0.0966,-2.502616,-1.206523,,,,
2517,,,,,,,38.56934,-65.695168,10.070591,
2518,-5.023271,7.728968,-0.156289,,,,,,,
2518,,,,0.034815,-2.542031,-1.154325,,,,
2520,-5.229091,7.671814,-0.491625,,,,,,,
2523,-5.430124,7.690869,-0.841131,,,,,,,
2525,-5.568935,7.648005,-1.185914,,,,,,,
2520,,,,-0.037623,-2.589968,-1.097866,,,,
2523,,,,-0.123909,-2.646427,-1.035016,,,,
2525,,,,-0.216587,-2.720996,-0.97323,,,,
2528,-5.621592,7.652771,-1.58265,,,,,,,
2527,,,,,,,39.907909,-65.600365,9.396869,
2528,,,,-0.324179,-2.808347,-0.907184,,,,
2530,-5.626385,7.643248,-1.998278,,,,,,,
2530,,,,-0.450945,-2.912743,-0.842203,,,,
2533,-5.612032,7.695643,-2.399737,,,,,,,
2533,,,,-0.584103,-3.040575,-0.779352,,,,
2535,-5.525885,7.690882,-2.777581,,,,,,,
2535,,,,-0.73537,-3.191843,-0.719698,,,,
2537,,,,,,,40.791142,-65.82621,8.1962,
2538,-5.291361,7.724226,-3.103472,,,,,,,
2538,,,,-0.896225,-3.36335,-0.663239,,,,
2540,-5.066409,7.757569,-3.358516,,,,,,,
2540,,,,-1.069863,-3.555098,-0.611041,,,,
2542,,,,-1.255219,-3.760694,-0.5663,,,,
2542,-4.827099,7.881408,-3.571055,,,,,,,
2544,,,,,,,,,,92.187386
2545,-4.487275,7.976671,-3.745808,,,,,,,
2545,,,,-1.445901,-3.997182,-0.532211,,,,
2547,,,,,,,41.390671,-65.263069,5.299428,
2547,-4.209673,8.01954,-3.844993,,,,,,,
2547,,,,-1.64404,-4.242193,-0.509841,,,,
2550,,,,-1.849636,-4.495726,-0.497057,,,,
2552,,,,-2.058428,-4.75565,-0.490666,,,,
2550,-3.774123,8.124327,-3.750533,,,,,,,
2552,-3.357717,8.167196,-3.660797,,,,,,,
2555,-2.903021,8.114807,-3.467155,,,,,,,
2555,,,,-2.265089,-5.026227,-0.497057,,,,
2557,,,,,,,42.455765,-65.107048,2.662673,
2557,,,,-2.468554,-5.290412,-0.516232,,,,
2557,-2.376529,8.148151,-3.212112,,,,,,,
2560,-1.883542,8.033842,-2.84844,,,,,,,
2562,-1.438419,7.938586,-2.423369,,,,,,,
2560,,,,-2.666694,-5.550337,-0.549255,,,,
2562,,,,-2.861637,-5.807066,-0.593996,,,,
2565,-1.036372,7.881433,-1.951067,,,,,,,
2565,,,,-3.052319,-6.055272,-0.644064,,,,
2567,,,,,,,42.66502,-64.698669,-0.164904,
2567,-0.691762,7.767125,-1.549611,,,,,,,
2567,,,,-3.231283,-6.29176,-0.701588,,,,
2570,,,,-3.402791,-6.513336,-0.769765,,,,
2570,-0.347152,7.662342,-1.034802,,,,,,,
2572,,,,-3.559384,-6.718931,-0.845398,,,,
2572,-0.083909,7.576612,-0.401917,,,,,,,
2575,0.064461,7.433726,0.273475,,,,,,,
2575,,,,-3.703195,-6.910679,-0.924228,,,,
2577,0.17454,7.347996,1.104727,,,,,,,
2577,,,,-3.82357,-7.068338,-0.997731,,,,
2577,,,,,,,42.617691,-63.686638,-4.68192,
2580,,,,-3.917313,-7.181256,-1.070169,,,,
2580,0.07402,7.23845,2.03044,,,,,,,
2582,-0.160518,7.114617,3.012829,,,,,,,
2582,,,,-3.986555,-7.233454,-1.130889,,,,
2585,-0.476424,7.000308,3.726005,,,,,,,
2585,,,,-4.030231,-7.222802,-1.174565,,,,
2586,,,,,,,42.673035,-63.209946,-10.261212,
2587,-0.821047,6.866948,4.254982,,,,,,,
2587,,,,-4.060058,-7.162082,-1.208653,,,,
2590,,,,-4.079233,-7.069404,-1.225697,,,,
2592,,,,-4.084559,-6.954356,-1.219306,,,,
2590,-1.170458,6.714537,4.746177,,,,,,,
2592,-1.620381,6.576413,5.157079,,,,,,,
2595,-2.032014,6.466868,5.501859,,,,,,,
2595,,,,-4.080298,-6.808414,-1.202262,,,,
2596,,,,,,,42.844902,-62.729103,-16.474577,
2597,-2.520228,6.362085,5.794685,,,,,,,
2597,,,,-4.068581,-6.646494,-1.168173,,,,
2600,-3.027588,6.309696,6.016666,,,,,,,
2602,-3.496657,6.233491,6.191417,,,,,,,
2600,,,,-4.047275,-6.466465,-1.118106,,,,
2602,,,,-4.020644,-6.274718,-1.048864,,,,
2605,-3.951366,6.200153,6.266984,,,,,,,
2605,,,,-3.992947,-6.08084,-0.962577,,,,
2606,,,,,,,42.696266,-61.706497,-21.130571,
2607,-4.372572,6.15729,6.266983,,,,,,,
2607,,,,-3.967381,-5.882701,-0.862442,,,,
2610,-4.741127,6.076322,6.257535,,,,,,,
2610,,,,-3.949271,-5.701606,-0.748459,,,,
2612,-5.042674,6.08585,6.200858,,,,,,,
2612,,,,-3.939684,-5.537556,-0.620628,,,,
2615,-5.281998,6.028698,6.130011,,,,,,,
2615,,,,-3.937553,-5.393745,-0.476817,,,,
2616,,,,,,,41.788971,-59.708466,-25.880699,
2617,-5.439961,6.000125,6.087501,,,,,,,
2617,,,,-3.939698,-5.276575,-0.324495,,,,
2620,-5.521337,5.909632,6.078053,,,,,,,
2620,,,,-3.949285,-5.186027,-0.167901,,,,
2622,,,,-3.952481,-5.121047,-0.005981,,,,
2622,-5.526129,5.88582,6.125282,,,,,,,
2625,-5.463914,5.809615,6.101665,,,,,,,
2625,,,,-3.952481,-5.074175,0.158069,,,,
2627,-5.291612,5.738174,6.163064,,,,,,,
2626,,,,,,,40.577759,-57.678688,-31.04776,
2627,,,,-3.952481,-5.055,0.316793,,,,
2630,,,,-3.951416,-5.05287,0.475518,,,,
2630,-5.052301,5.690547,6.205569,,,,,,,
2632,-4.789059,5.652446,6.375597,,,,,,,
2632,,,,-3.94609,-5.070979,0.624655,,,,
2635,,,,-3.937567,-5.101872,0.762074,,,,
2635,-4.578466,5.566715,6.517287,,,,,,,
2637,-4.224283,5.452408,6.710929,,,,,,,
2637,,,,-3.918393,-5.142352,0.88671,,,,
2636,,,,,,,38.757561,-57.273308,-35.102119,
2640,-3.908391,5.261892,6.980141,,,,,,,
2642,-3.558995,5.123769,7.102938,,,,,,,
2640,,,,-3.901348,-5.19242,1.004954,,,,
2642,,,,-3.891761,-5.247813,1.112545,,,,
2645,-3.104298,4.899913,7.258797,,,,,,,
2645,,,,-3.884304,-5.309598,1.206289,,,,
2647,-2.553875,4.909441,7.45244,,,,,,,
2647,,,,-3.882174,-5.378841,1.282988,,,,
2646,,,,,,,36.328159,-56.279648,-38.789082,
2649,-2.080034,4.866578,7.561068,,,,,,,
2649,,,,-3.882174,-5.45341,1.339447,,,,
2652,,,,-3.878978,-5.542892,1.371405,,,,
2654,,,,-3.872586,-5.644092,1.391644,,,,
2652,-1.58226,4.723692,7.731095,,,,,,,
2654,-1.046196,4.666539,7.877509,,,,,,,
2656,,,,,,,33.18243,-54.481186,-43.336571,
2657,-0.529277,4.590334,7.849169,,,,,,,
2657,,,,-3.855542,-5.751684,1.39484,,,,
2659,-0.026717,4.533182,7.849168,,,,,,,
2659,,,,-3.829976,-5.879516,1.376731,,,,
2662,0.50456,4.604629,7.882227,,,,,,,
2662,,,,-3.802279,-6.028653,1.343708,,,,
2664,0.95447,4.561765,7.962518,,,,,,,
2664,,,,-3.767125,-6.183115,1.300032,,,,
2666,,,,,,,30.095078,-53.786987,-47.828438,
2667,1.399594,4.609397,8.066422,,,,,,,
2667,,,,-3.729841,-6.336514,1.239312,,,,
2669,,,,-3.692557,-6.486716,1.171135,,,,
2672,,,,-3.653142,-6.610287,1.097632,,,,
2674,,,,-3.617989,-6.708291,1.017737,,,,
2669,1.80164,4.547481,8.278958,,,,,,,
2672,2.079242,4.590351,8.609569,,,,,,,
2674,2.265903,4.590353,8.836272,,,,,,,
2677,,,,-3.580704,-6.778598,0.941038,,,,
2676,,,,,,,25.547417,-51.721519,-51.251705,
2677,2.428632,4.576067,9.081868,,,,,,,
2679,2.572216,4.557018,9.275512,,,,,,,
2679,,,,-3.551942,-6.815883,0.867535,,,,
2682,,,,-3.528506,-6.820144,0.791901,,,,
2682,2.658363,4.576073,9.539999,,,,,,,
2684,2.591347,4.576076,9.856441,,,,,,,
2684,,,,-3.498679,-6.78499,0.723724,,,,
2686,,,,,,,21.050943,-50.02964,-54.507027,
2687,2.55305,4.518923,10.196498,,,,,,,
2687,,,,-3.46246,-6.712553,0.660874,,,,
2689,2.509966,4.499873,10.550724,,,,,,,
2689,,,,-3.413458,-6.6007,0.608676,,,,
2692,2.371155,4.476061,10.857719,,,,,,,
2692,,,,-3.358064,-6.452628,0.571392,,,,
2694,,,,,,,,,,227.319916
2694,2.170122,4.45225,11.211946,,,,,,,
2694,,,,-3.296279,-6.271533,0.546891,,,,
2697,1.99302,4.395096,11.490602,,,,,,,
2696,,,,,,,16.994867,-47.820015,-57.860512,
2697,,,,-3.223841,-6.07233,0.537303,,,,
2699,,,,-3.14075,-5.856081,0.536238,,,,
2699,1.806345,4.280788,11.726753,,,,,,,
2702,1.562235,4.16648,11.995964,,,,,,,
2702,,,,-3.048073,-5.627049,0.553282,,,,
2704,1.322911,4.147431,12.232115,,,,,,,
2704,,,,-2.950068,-5.377778,0.576718,,,,
2707,1.107518,4.071226,12.425757,,,,,,,
2707,,,,-2.840346,-5.112527,0.609741,,,,
2706,,,,,,,13.159391,-45.825722,-60.465546,
2709,0.963921,3.899763,12.591063,,,,,,,
2712,0.767674,3.818795,12.718583,,,,,,,
2709,,,,-2.721037,-4.838755,0.658744,,,,
2712,,,,-2.598531,-4.566048,0.719464,,,,
2714,0.61929,3.752116,12.978348,,,,,,,
2714,,,,-2.467504,-4.292275,0.792967,,,,
2717,0.513984,3.642571,13.134207,,,,,,,
2717,,,,-2.326889,-4.015306,0.871796,,,,
2716,,,,,,,9.905724,-44.44622,-62.046478,
2719,0.427823,3.585419,13.205051,,,,,,,
2722,0.356021,3.475873,13.223942,,,,,,,
2724,0.322509,3.366328,13.290063,,,,,,,
2719,,,,-2.176687,-3.748991,0.950626,,,,
2722,,,,-2.02542,-3.492262,1.037977,,,,
2724,,,,-1.870957,-3.248317,1.12959,,,,
2727,0.288998,3.294887,13.271168,,,,,,,
2726,,,,,,,6.558517,-42.522552,-63.028965,
2729,0.308137,3.237734,13.318398,,,,,,,
2727,,,,-1.712232,-3.023547,1.225464,,,,
2729,,,,-1.551378,-2.804102,1.318142,,,,
2732,0.327275,3.14724,13.26172,,,,,,,
2734,0.31291,3.094851,13.143643,,,,,,,
2732,,,,-1.385196,-2.599572,1.41295,,,,
2734,,,,-1.220081,-2.402498,1.510954,,,,
2737,0.336835,3.080564,13.044457,,,,,,,
2737,,,,-1.0539,-2.20862,1.610024,,,,
2736,,,,,,,4.298244,-41.582474,-64.737267,
2739,,,,-0.895175,-2.02433,1.701637,,,,
2739,0.442127,3.009123,12.902765,,,,,,,
2742,0.528275,2.980548,12.831919,,,,,,,
2742,,,,-0.740712,-1.841105,1.79538,,,,
2744,0.643141,2.956735,12.813025,,,,,,,
2744,,,,-0.579857,-1.653618,1.886993,,,,
2747,0.781938,2.951975,12.770516,,,,,,,
2747,,,,-0.421133,-1.45761,1.970083,,,,
2746,,,,,,,2.470318,-40.870079,-65.882988,
2749,0.959026,2.937689,12.666609,,,,,,,
2749,,,,-0.265605,-1.264797,2.047848,,,,
2752,,,,-0.113272,-1.071985,2.118155,,,,
2752,1.155259,2.899588,12.557977,,,,,,,
2754,,,,0.035865,-0.878107,2.17994,,,,
2754,1.279698,2.909117,12.491854,,,,,,,
2756,1.466358,2.899594,12.199023,,,,,,,
2756,,,,0.182871,-0.691686,2.24066,,,,
2756,,,,,,,0.45945,-39.802963,-65.789536,
2759,,,,0.32029,-0.509526,2.294989,,,,
2761,,,,0.453448,-0.329497,2.349317,,,,
2759,1.624301,2.851967,11.934533,,,,,,,
2761,1.844466,2.799577,11.717272,,,,,,,
2764,2.016768,2.842446,11.490565,,,,,,,
2764,,,,0.574888,-0.152663,2.399384,,,,
2766,,,,,,,-1.197985,-39.6689,-66.157845,
2766,,,,0.681415,0.015649,2.446256,,,,
2766,2.193856,2.913893,11.202458,,,,,,,
2769,2.323081,2.932948,10.886015,,,,,,,
2769,,,,0.769831,0.178634,2.484606,,,,
2771,2.476237,2.985343,10.739599,,,,,,,
2771,,,,0.847596,0.332032,2.518694,,,,
2774,2.58153,3.099657,10.664029,,,,,,,
2774,,,,0.90512,0.482234,2.547456,,,,
2776,2.705969,3.204444,10.588459,,,,,,,
2776,,,,0.939208,0.635632,2.558109,,,,
2776,,,,,,,-2.028661,-40.341385,-65.990494,
2779,2.811261,3.275891,10.508166,,,,,,,
2779,,,,0.961579,0.797552,2.563435,,,,
2781,2.983563,3.347338,10.503441,,,,,,,
2781,,,,0.982884,0.961602,2.56237,,,,
2784,3.213301,3.461652,10.338135,,,,,,,
2784,,,,0.991406,1.126718,2.54213,,,,
2786,3.37603,3.566439,10.172827,,,,,,,
2786,,,,0.982884,1.282246,2.509107,,,,
2786,,,,,,,-2.703788,-41.395111,-65.67083,
2789,3.538759,3.67599,10.00752,,,,,,,
2791,3.715847,3.809356,9.799705,,,,,,,
2794,3.82114,3.852225,9.634398,,,,,,,
2789,,,,0.96584,1.431383,2.465431,,,,
2791,,,,0.960513,1.561345,2.414298,,,,
2794,,,,0.955187,1.662545,2.352513,,,,
2796,3.921647,3.95225,9.502151,,,,,,,
2796,,,,0.957318,1.752027,2.283271,,,,
2796,,,,,,,-3.153313,-41.921692,-65.108849,
2799,,,,0.966905,1.814878,2.211898,,,,
2801,,,,0.983949,1.86388,2.13733,,,,
2804,,,,1.014842,1.903294,2.067022,,,,
2799,4.01258,3.966542,9.464365,,,,,,,
2801,4.046078,3.995122,9.487979,,,,,,,
2804,4.046072,4.033228,9.535208,,,,,,,
2806,,,,,,,-3.034019,-42.126434,-64.499374,
2806,4.050851,3.99989,9.672174,,,,,,,
2806,,,,1.049995,1.940578,1.993519,,,,
2809,4.079562,3.933211,9.884709,,,,,,,
2809,,,,1.091541,1.976797,1.918951,,,,
2811,4.15135,3.89511,10.135029,,,,,,,
2811,,,,1.137347,2.017277,1.850774,,,,
2814,4.218352,3.828432,10.390071,,,,,,,
2814,,,,1.191676,2.071605,1.783662,,,,
2816,4.223132,3.818908,10.81042,,,,,,,
2816,,,,1.2492,2.144043,1.717616,,,,
2816,,,,,,,-2.61553,-42.893585,-64.365005,
2819,4.275775,3.756993,11.18826,,,,,,,
2819,,,,1.316311,2.235656,1.652635,,,,
2821,4.337991,3.804625,11.542487,,,,,,,
2821,,,,1.385553,2.351769,1.584458,,,,
2824,4.309266,3.737947,12.062018,,,,,,,
2824,,,,1.461187,2.499841,1.521608,,,,
2826,4.318832,3.776052,12.482367,,,,,,,
2826,,,,1.545343,2.674544,1.458757,,,,
2826,,,,,,,-1.899208,-43.698402,-63.504478,
2829,,,,1.638021,2.871618,1.400168,,,,
2829,4.342757,3.728426,12.921607,,,,,,,
2831,4.3954,3.785584,13.285279,,,,,,,
2831,,,,1.739221,3.088931,1.342643,,,,
2834,4.366675,3.714142,13.516706,,,,,,,
2834,,,,1.845747,3.317963,1.28938,,,,
2836,,,,1.963991,3.54806,1.233987,,,,
2836,4.318805,3.623649,13.682012,,,,,,,
2836,,,,,,,-1.024298,-44.881485,-62.646259,
2839,4.299653,3.590311,13.79064,,,,,,,
2841,4.318791,3.485529,13.847315,,,,,,,
2839,,,,2.086497,3.779222,1.182854,,,,
2841,,,,2.218589,4.002927,1.132787,,,,
2844,4.266135,3.452191,13.837866,,,,,,,
2844,,,,2.356009,4.226633,1.089111,,,,
2844,,,,,,,,,,173.33165
2846,4.218264,3.395038,13.771744,,,,,,,
2846,,,,2.492362,4.433294,1.048631,,,,
2846,,,,,,,0.532916,-45.741554,-62.220024,
2849,4.146462,3.256915,13.67728,,,,,,,
2849,,,,2.628716,4.630367,1.011347,,,,
2851,4.07466,3.233103,13.625327,,,,,,,
2851,,,,2.762939,4.824245,0.975128,,,,
2854,3.998072,3.156898,13.530864,,,,,,,
2854,,,,2.896097,5.006405,0.946365,,,,
2856,3.921484,3.023538,13.502525,,,,,,,
2856,,,,3.021798,5.172586,0.919734,,,,
2856,,,,,,,2.540465,-47.023438,-60.760715,
2859,3.797031,2.994963,13.351386,,,,,,,
2859,,,,3.140042,5.321723,0.908016,,,,
2861,3.677366,2.937811,13.247478,,,,,,,
2861,,,,3.25296,5.455946,0.899494,,,,
2863,,,,3.359486,5.560342,0.898429,,,,
2863,3.514624,2.890184,13.072724,,,,,,,
2866,3.351881,2.971157,12.850741,,,,,,,
2866,,,,3.466013,5.637041,0.901625,,,,
2866,,,,,,,4.77579,-49.251358,-58.665276,
2868,,,,3.571474,5.688173,0.906951,,,,
2871,,,,3.669478,5.705218,0.911212,,,,
2873,,,,3.763221,5.694564,0.913342,,,,
2868,3.184352,2.985448,12.567357,,,,,,,
2871,3.098191,2.975925,12.321758,,,,,,,
2873,2.911516,3.042609,12.076159,,,,,,,
2876,2.796637,3.047374,11.835283,,,,,,,
2876,,,,3.862291,5.656215,0.920799,,,,
2876,,,,,,,7.821844,-51.35215,-56.856174,
2878,,,,3.954969,5.605083,0.935713,,,,
2881,,,,4.051908,5.542232,0.941039,,,,
2878,2.667399,2.999748,11.64636,,,,,,,
2881,2.542947,3.01404,11.551899,,,,,,,
2883,2.452,3.056909,11.405483,,,,,,,
2883,,,,4.144586,5.458076,0.946366,,,,
2886,2.341907,3.137882,11.301576,,,,,,,
2886,,,,4.236198,5.364332,0.948496,,,,
2886,,,,,,,10.643978,-53.452385,-54.24276,
2888,2.231815,3.214092,11.145713,,,,,,,
2888,,,,4.332072,5.258871,0.942105,,,,
2891,2.160012,3.299828,10.952068,,,,,,,
2891,,,,4.421554,5.136366,0.927191,,,,
2893,2.155219,3.361748,10.6923,,,,,,,
2893,,,,4.509971,5.010665,0.908016,,,,
2896,2.107349,3.380803,10.361687,,,,,,,
2896,,,,4.596257,4.873246,0.88245,,,,
2896,,,,,,,12.569019,-55.866257,-50.856876,
2898,2.107342,3.404621,10.101917,,,,,,,
2901,2.136053,3.395097,9.846874,,,,,,,
2898,,,,4.675087,4.725174,0.843035,,,,
2901,,,,4.751786,4.579233,0.798294,,,,
2903,,,,4.821028,4.439683,0.745031,,,,
2903,2.231774,3.457019,9.71935,,,,,,,
2906,2.38493,3.628488,9.639058,,,,,,,
2906,,,,4.882813,4.322504,0.689637,,,,
2906,,,,,,,14.076658,-58.249557,-47.408463,
2908,2.528514,3.795194,9.629609,,,,,,,
2908,,,,4.942468,4.208521,0.620395,,,,
2911,,,,4.999992,4.119038,0.5405,,,,
2913,,,,5.056451,4.058318,0.458475,,,,
2911,2.705602,3.885693,9.544594,,,,,,,
2913,2.849185,4.042872,9.610714,,,,,,,
2916,3.002342,4.219104,9.639052,,,,,,,
2916,,,,5.11291,4.015708,0.367928,,,,
2916,,,,,,,15.327442,-60.241043,-44.251331,
2918,3.121994,4.2715,9.620158,,,,,,,
2918,,,,5.166173,3.999728,0.273119,,,,
2921,,,,5.213045,4.00399,0.180441,,,,
2921,3.251218,4.328659,9.459574,,,,,,,
2923,3.390016,4.442971,9.228143,,,,,,,
2923,,,,5.242872,4.025295,0.085633,,,,
2926,3.461804,4.585863,9.00616,,,,,,,
2926,,,,5.264178,4.061513,-0.017698,,,,
2926,,,,,,,16.771709,-62.26255,-40.352421,
2928,3.528806,4.766858,8.708607,,,,,,,
2931,3.624527,4.862119,8.453562,,,,,,,
2928,,,,5.278026,4.110516,-0.118898,,,,
2931,,,,5.294005,4.155257,-0.221163,,,,
2933,,,,5.308918,4.201063,-0.328754,,,,
2933,3.667597,4.933567,8.056826,,,,,,,
2936,3.677162,4.971673,7.579799,,,,,,,
2936,,,,5.318506,4.239412,-0.442738,,,,
2936,,,,,,,18.332228,-64.491745,-35.689419,
2938,3.672369,4.947861,7.135832,,,,,,,
2938,,,,5.323833,4.260717,-0.551395,,,,
2941,3.571849,4.9431,6.743819,,,,,,,
2941,,,,5.324898,4.275631,-0.660051,,,,
2943,3.375602,4.914526,6.361253,,,,,,,
2943,,,,5.317441,4.285218,-0.763382,,,,
2946,3.188928,4.938343,5.969239,,,,,,,
2946,,,,5.296135,4.293741,-0.857125,,,,
2946,,,,,,,20.205799,-66.743866,-31.07332,
2948,2.896954,4.947872,5.539443,,,,,,,
2948,,,,5.255655,4.295871,-0.943411,,,,
2951,2.719852,4.952637,5.156875,,,,,,,
2951,,,,5.202392,4.296936,-1.023306,,,,
2953,2.413519,5.062188,4.708186,,,,,,,
2953,,,,5.141672,4.288414,-1.094679,,,,
2956,,,,5.069234,4.274565,-1.153268,,,,
2956,2.159836,5.152687,4.221713,,,,,,,
2956,,,,,,,21.839417,-68.061752,-26.474915,
2958,1.925298,5.200319,3.796638,,,,,,,
2958,,,,4.986143,4.241542,-1.205466,,,,
2961,,,,4.89027,4.19467,-1.250207,,,,
2961,1.662042,5.276529,3.329057,,,,,,,
2963,1.374854,5.381316,2.781184,,,,,,,
2963,,,,4.781613,4.13182,-1.28323,,,,
2966,,,,4.661238,4.046598,-1.310927,,,,
2966,1.111598,5.524208,2.242757,,,,,,,
2966,,,,,,,23.778912,-68.671875,-21.811085,
2968,0.857915,5.671863,1.808237,,,,,,,
2968,,,,4.531276,3.943268,-1.327971,,,,
2970,,,,4.384269,3.823958,-1.34182,,,,
2973,,,,4.226611,3.676952,-1.352473,,,,
2970,0.613804,5.833805,1.31704,,,,,,,
2973,0.345762,5.943356,0.901412,,,,,,,
2975,0.116011,6.062432,0.452723,,,,,,,
2975,,,,4.050842,3.515031,-1.360995,,,,
2976,,,,,,,25.441612,-69.435555,-17.557526,
2978,,,,3.864421,3.332871,-1.374843,,,,
2978,-0.080236,6.205324,0.084325,,,,,,,
2980,-0.28127,6.343452,-0.444656,,,,,,,
2980,,,,3.668412,3.138993,-1.3823,,,,
2983,-0.463158,6.457766,-0.723316,,,,,,,
2983,,,,3.463881,2.930201,-1.397213,,,,
2985,-0.668977,6.791175,-0.860286,,,,,,,
2985,,,,3.251894,2.712888,-1.416388,,,,
2986,,,,,,,26.614674,-69.603867,-13.725257,
2988,-0.960952,6.915015,-1.22396,,,,,,,
2990,-1.248139,7.04838,-1.535682,,,,,,,
2994,,,,,,,,,,300.108215
2993,-1.4396,7.210323,-1.767112,,,,,,,
2988,,,,3.036711,2.487051,-1.444085,,,,
2990,,,,2.80981,2.233519,-1.452607,,,,
2993,,,,2.575452,1.965072,-1.452607,,,,
2995,-1.650206,7.272244,-1.861574,,,,,,,
2995,,,,2.332572,1.689169,-1.449411,,,,
2996,,,,,,,28.011662,-69.772728,-10.697306,
2998,-1.765085,7.40561,-1.979651,,,,,,,
3000,-1.750733,7.553264,-2.06939,,,,,,,
2998,,,,2.092887,1.395156,-1.448346,,,,
3000,,,,1.858529,1.091556,-1.446216,,,,
3003,-1.678945,7.605659,-2.097729,,,,,,,
3003,,,,1.630563,0.782629,-1.453672,,,,
3005,-1.554506,7.729499,-2.1119,,,,,,,
3005,,,,1.407923,0.46305,-1.472847,,,,
3006,,,,,,,29.266361,-70.285164,-8.243198,
3008,-1.415709,7.772368,-2.229977,,,,,,,
3008,,,,1.189544,0.13708,-1.501609,,,,
3010,-1.30563,7.824763,-2.258317,,,,,,,
3010,,,,0.969034,-0.196348,-1.538893,,,,
3013,-1.162046,7.9105,-2.178027,,,,,,,
3013,,,,0.742133,-0.525515,-1.588961,,,,
3015,-0.999317,7.943842,-2.121352,,,,,,,
3015,,,,0.521623,-0.848289,-1.642224,,,,
3016,,,,,,,30.501984,-69.866859,-6.456489,
3018,-0.946674,7.972422,-2.026892,,,,,,,
3018,,,,0.296853,-1.163608,-1.704009,,,,
3020,,,,0.06356,-1.458686,-1.770056,,,,
3020,-0.85574,7.972425,-1.922987,,,,,,,
3023,-0.76002,7.929562,-1.73879,,,,,,,
3023,,,,-0.163341,-1.740981,-1.838232,,,,
3025,-0.61165,7.900987,-1.540424,,,,,,,
3025,,,,-0.390242,-2.008362,-1.906409,,,,
3026,,,,,,,31.791042,-68.870781,-6.251506,
3028,,,,-0.609686,-2.260829,-1.976717,,,,
3030,,,,-0.816348,-2.499449,-2.05022,,,,
3028,-0.530289,7.848597,-1.403458,,,,,,,
3030,-0.396278,7.820022,-1.205092,,,,,,,
3033,-0.238335,7.791448,-0.973665,,,,,,,
3033,,,,-1.015552,-2.723154,-2.119462,,,,
3035,-0.080392,7.758109,-0.765853,,,,,,,
3035,,,,-1.210495,-2.934076,-2.187639,,,,
3036,,,,,,,33.352448,-68.039955,-7.926445,
3038,,,,-1.401177,-3.122628,-2.25262,,,,
3040,,,,-1.586533,-3.292005,-2.314405,,,,
3038,-0.070827,7.639038,-0.506088,,,,,,,
3040,-0.118697,7.581884,-0.284107,,,,,,,
3043,,,,-1.764432,-3.441142,-2.366603,,,,
3043,-0.238362,7.496154,-0.19437,,,,,,,
3045,-0.391532,7.358031,-0.043235,,,,,,,
3045,,,,-1.941266,-3.57217,-2.404953,,,,
3046,,,,,,,34.81863,-67.192642,-10.049582,
3048,,,,-2.115969,-3.682957,-2.439041,,,,
3050,,,,-2.282151,-3.7767,-2.460346,,,,
3048,-0.544702,7.248487,0.159854,,,,,,,
3050,-0.67394,7.138941,0.348774,,,,,,,
3053,,,,-2.443005,-3.857661,-2.464607,,,,
3053,-0.841469,7.062736,0.48574,,,,,,,
3055,-0.932417,6.96748,0.599092,,,,,,,
3055,,,,-2.598534,-3.929033,-2.462477,,,,
3056,,,,,,,36.314983,-66.52771,-12.320665,
3058,,,,-2.750866,-3.990819,-2.452889,,,,
3058,-0.965928,6.872224,0.811627,,,,,,,
3060,-1.080807,6.762678,0.891917,,,,,,,
3060,,,,-2.896807,-4.047277,-2.43691,,,,
3063,-1.109532,6.643607,0.9297,,,,,,,
3063,,,,-3.035292,-4.103736,-2.412409,,,,
3065,-1.162189,6.524536,0.943867,,,,,,,
3065,,,,-3.174841,-4.163391,-2.386843,,,,
3066,,,,,,,38.266945,-65.330307,-15.462957,
3068,-1.186127,6.457858,0.958035,,,,,,,
3070,-1.305793,6.414993,1.038325,,,,,,,
3068,,,,-3.313325,-4.227307,-2.357016,,,,
3070,,,,-3.448614,-4.294419,-2.321862,,,,
3073,-1.377595,6.253056,1.123338,,,,,,,
3075,-1.425465,6.138747,1.161121,,,,,,,
3073,,,,-3.589229,-4.363661,-2.292034,,,,
3075,,,,-3.725583,-4.437164,-2.260076,,,,
3076,,,,,,,39.080189,-64.039993,-18.897116,
3077,-1.502053,6.038728,1.246134,,,,,,,
3077,,,,-3.871524,-4.509603,-2.229184,,,,
3080,-1.497274,5.833924,1.298086,,,,,,,
3080,,,,-4.022791,-4.586301,-2.200422,,,,
3082,-1.497281,5.605305,1.487006,,,,,,,
3082,,,,-4.172993,-4.66087,-2.172725,,,,
3085,-1.449424,5.324293,1.704264,,,,,,,
3085,,,,-4.32426,-4.745026,-2.151419,,,,
3086,,,,,,,39.020687,-63.039749,-22.795692,
3087,-1.382422,5.048045,1.916799,,,,,,,
3087,,,,-4.479789,-4.821725,-2.136506,,,,
3090,,,,-4.632122,-4.900555,-2.121592,,,,
3090,-1.36807,4.8099,2.086827,,,,,,,
3092,,,,-4.776998,-4.983645,-2.11307,,,,
3092,-1.353717,4.614621,2.223794,,,,,,,
3095,-1.291502,4.386002,2.393821,,,,,,,
3095,,,,-4.915482,-5.072062,-2.104548,,,,
3096,,,,,,,39.331299,-60.217422,-27.627762,
3097,-1.267576,4.185961,2.544957,,,,,,,
3097,,,,-5.052901,-5.158349,-2.099221,,,,
3100,-1.214934,3.962105,2.83306,,,,,,,
3100,,,,-5.180733,-5.244635,-2.096026,,,,
3102,-1.16229,3.790641,3.201455,,,,,,,
3102,,,,-5.301107,-5.319204,-2.091765,,,,
3105,-1.124007,3.62394,3.650142,,,,,,,
3105,,,,-5.415091,-5.386315,-2.086438,,,,
3106,,,,,,,39.338005,-57.363358,-32.876766,
3107,-1.133586,3.428662,4.042151,,,,,,,
3107,,,,-5.51203,-5.437448,-2.075786,,,,
3110,,,,-5.596186,-5.480059,-2.067264,,,,
3112,,,,-5.665428,-5.507756,-2.050219,,,,
3110,-1.085729,3.290539,4.514453,,,,,,,
3112,-1.052232,3.085735,4.887572,,,,,,,
3115,-1.095316,2.980952,5.350427,,,,,,,
3115,,,,-5.715495,-5.533322,-2.028914,,,,
3116,,,,,,,38.842022,-55.401794,-37.380203,
3117,-1.147972,2.823777,5.80856,,,,,,,
3120,-1.205415,2.666603,6.233631,,,,,,,
3117,,,,-5.753844,-5.554627,-2.001217,,,,
3120,,,,-5.77728,-5.570606,-1.966063,,,,
3122,-1.282004,2.599924,6.786224,,,,,,,
3122,,,,-5.780476,-5.571672,-1.925583,,,,
3125,,,,-5.77728,-5.552497,-1.880842,,,,
3125,-1.296369,2.528483,7.367156,,,,,,,
3126,,,,,,,38.03495,-52.677788,-42.188259,
3127,-1.416035,2.4237,8.127563,,,,,,,
3127,,,,-5.760236,-5.518409,-1.828644,,,,
3130,,,,-5.731474,-5.463015,-1.766859,,,,
3130,-1.483051,2.380836,8.831293,,,,,,,
3132,-1.602716,2.314158,9.544469,,,,,,,
3132,,,,-5.688863,-5.395904,-1.701878,,,,
3135,-1.703236,2.357027,10.111232,,,,,,,
3135,,,,-5.624948,-5.31814,-1.630505,,,,
3136,,,,,,,36.543678,-48.591812,-48.356289,
3137,-1.822902,2.323689,10.706332,,,,,,,
3137,,,,-5.550379,-5.23931,-1.552741,,,,
3140,-1.89949,2.242722,11.254202,,,,,,,
3140,,,,-5.461962,-5.160481,-1.473912,,,,
3142,-1.94736,2.21891,11.683996,,,,,,,
3142,,,,-5.351175,-5.084847,-1.389756,,,,
3144,,,,,,,,,,257.803314
3145,-1.952153,2.11889,12.184636,,,,,,,
3145,,,,-5.22867,-5.017735,-1.302404,,,,
3145,,,,,,,34.947784,-44.71003,-53.110538,
3147,-1.95216,2.104604,12.633323,,,,,,,
3147,,,,-5.085924,-4.962342,-1.212922,,,,
3150,,,,-4.928265,-4.908014,-1.128766,,,,
3150,-1.861226,2.076029,13.02061,,,,,,,
3152,-1.76072,1.999825,13.384282,,,,,,,
3152,,,,-4.757823,-4.859012,-1.041414,,,,
3155,-1.645854,1.918857,13.714893,,,,,,,
3155,,,,-4.578859,-4.816401,-0.956193,,,,
3155,,,,,,,32.947472,-41.734306,-56.825634,
3157,,,,-4.383915,-4.770595,-0.870972,,,,
3160,,,,-4.18045,-4.723723,-0.796404,,,,
3157,-1.540561,1.942674,14.05495,,,,,,,
3160,-1.416123,1.980781,14.489468,,,,,,,
3162,-1.286898,2.037939,14.848415,,,,,,,
3162,,,,-3.963137,-4.665134,-0.726096,,,,
3165,-1.152887,2.1332,15.179027,,,,,,,
3165,,,,-3.736236,-4.592696,-0.661115,,,,
3165,,,,,,,30.330181,-38.703888,-60.910759,
3167,-1.090672,2.142729,15.471853,,,,,,,
3170,-0.932729,2.261806,15.65605,,,,,,,
3167,,,,-3.506139,-4.517063,-0.600395,,,,
3170,,,,-3.277107,-4.42545,-0.548197,,,,
3172,-0.808291,2.395171,15.73634,,,,,,,
3172,,,,-3.045945,-4.32425,-0.501326,,,,
3175,-0.707784,2.461855,15.745785,,,,,,,
3175,,,,-2.817979,-4.221985,-0.454454,,,,
3175,,,,,,,28.038933,-36.633026,-64.066177,
3177,-0.612064,2.580932,15.674937,,,,,,,
3177,,,,-2.598534,-4.122916,-0.410778,,,,
3180,,,,-2.387612,-4.019585,-0.37882,,,,
3180,-0.52113,2.623801,15.528522,,,,,,,
3182,-0.430197,2.690485,15.419891,,,,,,,
3182,,,,-2.183082,-3.925842,-0.341536,,,,
3184,-0.367981,2.785747,15.363214,,,,,,,
3184,,,,-1.990269,-3.831034,-0.301056,,,,
3185,,,,,,,25.590183,-34.920464,-67.022377,
3187,-0.334483,2.790513,15.344319,,,,,,,
3187,,,,-1.808109,-3.725573,-0.263772,,,,
3189,-0.310558,2.823856,15.419888,,,,,,,
3189,,,,-1.629145,-3.609459,-0.226488,,,,
3192,-0.281847,2.814333,15.358486,,,,,,,
3192,,,,-1.457637,-3.473106,-0.189203,,,,
3194,-0.296213,2.904831,15.311255,,,,,,,
3194,,,,-1.289326,-3.323969,-0.152985,,,,
3195,,,,,,,23.346813,-33.437973,-68.457085,
3197,-0.315365,2.966752,15.259299,,,,,,,
3199,-0.377594,3.019148,15.193176,,,,,,,
3202,-0.44461,3.047728,15.131775,,,,,,,
3197,,,,-1.125275,-3.159918,-0.110374,,,,
3199,,,,-0.968681,-2.98415,-0.067763,,,,
3202,,,,-0.812088,-2.792403,-0.019827,,,,
3204,-0.511625,3.119175,15.150666,,,,,,,
3204,,,,-0.665081,-2.581481,0.029176,,,,
3205,,,,,,,20.912453,-32.346176,-67.991875,
3207,-0.607359,3.190622,15.197895,,,,,,,
3209,-0.660016,3.200151,15.207339,,,,,,,
3212,-0.765322,3.166813,15.278184,,,,,,,
3207,,,,-0.520205,-2.362036,0.0867,,,,
3209,,,,-0.37746,-2.131939,0.139963,,,,
3212,,,,-0.232584,-1.887994,0.202814,,,,
3214,-0.875415,3.200156,15.287628,,,,,,,
3214,,,,-0.087709,-1.636592,0.265664,,,,
3215,,,,,,,19.241756,-31.487314,-67.938652,
3217,-0.923285,3.181107,15.349026,,,,,,,
3217,,,,0.056102,-1.378798,0.32958,,,,
3219,-0.937651,3.166821,15.174273,,,,,,,
3219,,,,0.193521,-1.121005,0.400953,,,,
3222,-0.923299,3.090616,14.975904,,,,,,,
3222,,,,0.33094,-0.866407,0.473391,,,,
3224,-0.95681,2.99536,14.805873,,,,,,,
3224,,,,0.469424,-0.620331,0.551155,,,,
3225,,,,,,,18.565817,-31.592619,-69.214043,
3227,-0.995108,3.000126,14.645288,,,,,,,
3227,,,,0.602582,-0.385973,0.627854,,,,
3229,,,,0.729349,-0.14842,0.706683,,,,
3232,,,,0.849723,0.079547,0.788709,,,,
3234,,,,0.966902,0.295795,0.866473,,,,
3229,-0.956824,3.038232,14.513042,,,,,,,
3232,-0.966403,3.000131,14.371349,,,,,,,
3234,-0.975983,2.990608,14.182427,,,,,,,
3235,,,,,,,18.039339,-32.085045,-70.027916,
3237,,,,1.078755,0.501391,0.941041,,,,
3239,,,,1.182085,0.691008,1.018806,,,,
3242,,,,1.289677,0.864646,1.088048,,,,
3237,-0.966417,3.019188,14.059627,,,,,,,
3239,-0.880269,2.962036,13.889597,,,,,,,
3242,-0.870703,3.023957,13.790412,,,,,,,
3244,-0.841992,2.966804,13.667612,,,,,,,
3244,,,,1.396203,1.026566,1.149833,,,,
3245,,,,,,,18.204828,-33.405846,-68.744385,
3247,-0.712768,2.92394,13.507028,,,,,,,
3247,,,,1.497403,1.161854,1.211618,,,,
3249,,,,1.596473,1.280098,1.268077,,,,
3249,-0.621834,2.904891,13.28032,,,,,,,
3252,-0.502182,2.923945,13.105567,,,,,,,
3252,,,,1.696608,1.379168,1.316014,,,,
3254,,,,1.787155,1.461193,1.352233,,,,
3254,-0.38253,2.871556,12.841076,,,,,,,
3255,,,,,,,18.167704,-34.705475,-67.738808,
3257,-0.167151,2.881084,12.623815,,,,,,,
3257,,,,1.877702,1.527239,1.384191,,,,
3259,-0.018781,2.904902,12.595475,,,,,,,
3259,,,,1.963989,1.580502,1.410823,,,,
3262,0.129589,2.943008,12.510459,,,,,,,
3262,,,,2.043883,1.6327,1.423606,,,,
3264,0.268386,2.938248,12.477397,,,,,,,
3264,,,,2.114191,1.683832,1.431063,,,,
3265,,,,,,,18.387707,-36.185081,-67.840096,
3267,0.397611,3.014458,12.430165,,,,,,,
3269,0.488545,3.009697,12.269581,,,,,,,
3272,0.598624,3.100196,12.189287,,,,,,,
3267,,,,2.187694,1.73603,1.429997,,,,
3269,,,,2.246283,1.780771,1.424671,,,,
3272,,,,2.296351,1.829773,1.41828,,,,
3274,0.66084,3.195458,12.047596,,,,,,,
3274,,,,2.344288,1.870253,1.401235,,,,
3275,,,,,,,18.863207,-37.531761,-66.448853,
3277,,,,2.390094,1.907537,1.378865,,,,
3277,0.665619,3.228801,11.844503,,,,,,,
3279,0.699117,3.257382,11.844501,,,,,,,
3279,,,,2.430574,1.946952,1.360755,,,,
3282,,,,2.469989,1.984236,1.336254,,,,
3282,0.703896,3.343118,11.735872,,,,,,,
3284,,,,2.505142,2.022585,1.305362,,,,
3284,0.694317,3.433617,11.580009,,,,,,,
3285,,,,,,,19.475988,-39.277336,-63.977642,
3287,0.656019,3.414567,11.622516,,,,,,,
3287,,,,2.5371,2.060935,1.273404,,,,
3289,,,,2.566928,2.105676,1.240381,,,,
3289,0.636867,3.486015,11.665021,,,,,,,
3291,0.63686,3.576514,11.679189,,,,,,,
3291,,,,2.598886,2.155743,1.208423,,,,
3294,0.651213,3.628908,11.735865,,,,,,,
3294,,,,,,,,,,390.777039
3294,,,,2.629778,2.213267,1.167943,,,,
3295,,,,,,,20.784334,-41.424683,-62.359947,
3296,0.636847,3.657489,11.745309,,,,,,,
3296,,,,2.659606,2.271857,1.131724,,,,
3299,0.660772,3.709884,11.778369,,,,,,,
3299,,,,2.692629,2.340034,1.095505,,,,
3301,,,,2.728848,2.414602,1.058221,,,,
3301,0.62726,3.705124,11.835044,,,,,,,
3304,0.593749,3.74323,11.896441,,,,,,,
3304,,,,2.766132,2.491301,1.018806,,,,
3306,0.58417,3.833729,11.905887,,,,,,,
3306,,,,2.807677,2.569065,0.978326,,,,
3305,,,,,,,21.609133,-42.970772,-61.472767,
3309,0.57459,3.881361,11.910607,,,,,,,
3311,0.608088,3.909941,11.868099,,,,,,,
