"Timestamp"," Accel x"," Accel y"," Accel z"," Gyro x"," Gyro y"," Gyro z","Mag x","Mag y","Mag z","Light Intensity"
"0","","","","","","","","","","6.9504023"
"23","0.5685189","6.1614413","10.815809","","","","","","",""
"26","0.80305004","6.218597","11.373126","","","","","","",""
"28","0.9609995","6.17573","11.661231","","","","","","",""
"31","1.0710853","6.0947604","11.845429","","","","","","",""
"33","1.1189489","5.980449","11.703738","","","","","","",""
"36","1.162026","5.856612","11.495925","","","","","","",""
"38","1.1572397","5.7661166","11.2125435","","","","","","",""
"41","1.0806581","5.6327534","10.886654","","","","","","",""
"43","0.941854","5.556546","10.513535","","","","","","",""
"46","0.79826355","5.4660506","10.107353","","","","","","",""
"48","0.64988685","5.399369","9.738957","","","","","","",""
"51","0.48236462","5.4279466","9.450853","","","","","","",""
"53","0.3339878","5.3279247","9.191086","","","","","","",""
"56","0.17125198","5.299347","9.011611","","","","","","",""
"58","0.032447904","5.3612657","8.784905","","","","","","",""
"61","-0.06806542","5.404132","8.638492","","","","","","",""
"63","-0.17336506","5.370791","8.487354","","","","","","",""
"66","-0.25951934","5.299347","8.430678","","","","","","",""
"68","-0.32652822","5.280295","8.392894","","","","","","",""
"71","-0.45097327","5.237428","8.284264","","","","","","",""
"73","-0.49883676","5.2279024","8.241757","","","","","","",""
"74","","","","","","","","","",""
"76","-0.49405038","5.17551","8.237034","","","","","","",""
"77","","","","","","","-7.367234","-37.460014","-42.095177",""
"78","-0.5227685","5.1231174","8.350386","","","","","","",""
"81","-0.54670024","5.165984","8.369278","","","","","","",""
"83","-0.5131958","5.118355","8.4070635","","","","","","",""
"86","-0.47011864","5.0659623","8.369278","","","","","","",""
"87","","","","","","","-7.441421","-37.634747","-42.22749",""
"88","-0.48926404","5.070725","8.378725","","","","","","",""
"91","-0.43182784","5.085014","8.4070635","","","","","","",""
"93","-0.37439167","5.0659623","8.378725","","","","","","",""
"96","-0.37439167","5.089777","8.397616","","","","","","",""
"97","","","","","","","-8.198995","-37.395927","-42.124725",""
"98","-0.34088728","5.0945396","8.463739","","","","","","",""
"101","-0.30259645","5.1278806","8.440124","","","","","","",""
"103","-0.27866477","5.1707473","8.392894","0.025582211","-0.24291568","0.104021125","","","",""
"106","-0.18772411","5.25648","8.336217","0.009603257","-0.23865461","0.11147796","","","",""
"107","","","","","","","-8.50732","-36.84236","-41.18579",""
"108","-0.12550159","5.3279247","8.293711","-0.0063756956","-0.23439357","0.114673756","","","",""
"111","-0.06806542","5.3469763","8.369278","-0.022354648","-0.22800198","0.11573902","","","",""
"113","-0.053706363","5.3517394","8.345664","-0.039398868","-0.21415356","0.11573902","","","",""
"114","","","","","","","","","",""
"115","-0.015415594","5.4327097","8.336217","-0.06283466","-0.19604407","0.114673756","","","",""
"117","","","","","","","-8.3697605","-37.02943","-41.50398",""
"118","0.008516178","5.480339","8.270095","-0.08733572","-0.17686933","0.11254323","","","",""
"120","0.027661562","5.4422355","8.166188","-0.1171631","-0.16195564","0.105086386","","","",""
"123","-0.010629237","5.380317","8.123681","-0.14592522","-0.14704195","0.102955855","","","",""
"125","0.0037298203","5.413658","8.043389","-0.1757526","-0.12893248","0.10082533","","","",""
"127","","","","","","","-8.443948","-37.20416","-41.63629",""
"128","0.018088847","5.3279247","8.015051","-0.2077105","-0.1161493","0.09549902","","","",""
"130","-0.03456098","5.3183985","7.9725437","-0.23966841","-0.104431406","0.09443375","","","",""
"133","-0.001056537","5.237428","7.9489293","-0.27482212","-0.08951771","0.092303224","","","",""
"135","0.04202059","5.189799","8.024498","-0.30571476","-0.07779982","0.08910743","","","",""
"137","","","","","","","-8.55743","-37.205357","-41.15683",""
"138","0.04202059","5.1707473","8.029221","-0.33234635","-0.06927771","0.08697691","","","",""
"140","0.08031136","5.118355","8.09062","-0.3621737","-0.05862508","0.08804217","","","",""
"143","0.075525016","5.0516734","8.208695","-0.3888053","-0.04371139","0.09017269","","","",""
"145","0.094670445","5.0230956","8.331494","-0.4122411","-0.027732436","0.091237955","","","",""
"146","","","","","","","","","","162.73262"
"147","","","","","","","-8.229158","-37.213554","-41.976776",""
"148","0.113815814","4.9468884","8.336217","-0.43141586","-0.017079799","0.08804217","","","",""
"150","0.10902947","4.9230733","8.392894","-0.444199","-0.006427164","0.091237955","","","",""
"153","0.13774759","4.846866","8.534585","-0.45272112","0.004225471","0.09549902","","","",""
"154","","","","","","","","","",""
"155","0.14732024","4.789711","8.548754","-0.45485163","0.010617053","0.09443375","","","",""
"157","","","","","","","-7.9462724","-37.054108","-41.87573",""
"158","0.13296121","4.8278146","8.567646","-0.45485163","0.020204425","0.09443375","","","",""
"160","0.12817487","4.7611327","8.704614","-0.45059058","0.029791797","0.09443375","","","",""
"163","0.12817487","4.7135034","8.718783","-0.43993795","0.039379165","0.092303224","","","",""
"165","0.113815814","4.684926","8.685721","-0.42715478","0.04470548","0.092303224","","","",""
"167","","","","","","","-8.278397","-36.100445","-42.496227",""
"168","0.12817487","4.6896887","8.690445","-0.41011056","0.052162327","0.09443375","","","",""
"170","0.12817487","4.651585","8.6290455","-0.3920011","0.052162327","0.092303224","","","",""
"173","0.094670445","4.6087184","8.57237","-0.37176108","0.0500318","0.09443375","","","",""
"175","0.113815814","4.6230073","8.591261","-0.34939057","0.051097065","0.093368486","","","",""
"177","","","","","","","-8.731776","-35.681557","-43.374683",""
"178","0.12338853","4.5468","8.586538","-0.32702002","0.04470548","0.0986948","","","",""
"180","0.11860216","4.4944077","8.5629225","-0.30464947","0.039379165","0.10082533","","","",""
"183","0.13774759","4.46583","8.567646","-0.28014842","0.03192232","0.104021125","","","",""
"185","0.16646564","4.4801188","8.5582","-0.25032106","0.025530742","0.10828217","","","",""
"187","","","","","","","-9.088851","-36.01573","-43.608047",""
"188","0.1999701","4.5182223","8.492078","-0.22475472","0.018073898","0.10721691","","","",""
"190","0.19518375","4.46583","8.392894","-0.1959926","0.0052907346","0.11147796","","","",""
"193","0.23826087","4.5420375","8.270095","-0.16296944","-0.00855769","0.114673756","","","",""
"194","","","","","","","","","",""
"195","0.24783358","4.522985","8.081174","-0.13420732","-0.030928224","0.113608494","","","",""
"197","","","","","","","-8.898137","-35.83686","-44.109806",""
"198","0.2909107","4.522985","8.015051","-0.10011888","-0.054364026","0.114673756","","","",""
"200","0.24783358","4.570615","7.793069","-0.071356766","-0.083126135","0.11147796","","","",""
"203","0.22390181","4.537274","7.646655","-0.047920976","-0.112953514","0.10721691","","","",""
"205","0.22868815","4.5896664","7.4624567","-0.022354648","-0.14810722","0.105086386","","","",""
"207","0.16167927","4.580141","7.2735357","-0.001049378","-0.1779346","0.101890594","-8.748679","-36.22398","-43.64828",""
"210","0.14732024","4.6182446","7.183798","0.010668521","-0.20882724","0.0986948","","","",""
"212","0.15210661","4.651585","7.0846143","0.02238642","-0.23971988","0.09656428","","","",""
"215","0.06116599","4.59443","6.971261","0.025582211","-0.26954725","0.09549902","","","",""
"217","0.008516178","4.6182446","6.815401","0.028778002","-0.2993746","0.0986948","-9.061731","-36.20105","-43.601383",""
"220","0.008516178","4.6134815","6.6831565","0.021321157","-0.3228104","0.09976006","","","",""
"222","-0.048920035","4.5896664","6.593419","0.0064074667","-0.34411567","0.101890594","","","",""
"225","-0.096783504","4.59443","6.5225735","-0.01063675","-0.36009464","0.10615165","","","",""
"227","-0.12550159","4.475356","6.413944","-0.029811492","-0.3760736","0.11254323","-9.028523","-36.380478","-43.90394",""
"230","-0.096783504","4.4372525","6.2816987","-0.054312553","-0.3845957","0.1221306","","","",""
"232","-0.1542197","4.38486","6.225023","-0.08413993","-0.39524835","0.13171797","","","",""
"234","","","","","","","","","",""
"235","-0.19251047","4.3800964","6.2202992","-0.1171631","-0.40377045","0.14130534","","","",""
"237","-0.13986064","4.351519","6.1447306","-0.15125154","-0.4112273","0.15195797","-9.687835","-36.155193","-43.507587",""
"240","-0.159006","4.313415","6.1730695","-0.19066629","-0.41016203","0.1626106","","","",""
"242","-0.11592888","4.3324676","6.182515","-0.22795051","-0.4080315","0.17539378","","","",""
"245","-0.03456098","4.327704","6.196684","-0.26523474","-0.40590099","0.18711166","","","",""
"247","-0.001056537","4.3181787","6.2439146","-0.30678","-0.39844412","0.19882956","-10.221489","-35.91693","-44.209137",""
"250","0.027661562","4.3086524","6.262807","-0.34619477","-0.38885677","0.20841694","","","",""
"252","0.0707387","4.2991266","6.310037","-0.38667476","-0.3760736","0.21693905","","","",""
"255","0.1425339","4.3086524","6.4092207","-0.423959","-0.36435568","0.22546116","","","",""
"257","0.2621926","4.2943635","6.451728","-0.4623085","-0.3558336","0.23185274","-9.937513","-36.49407","-43.911186",""
"260","0.26697895","4.25626","6.503681","-0.49959272","-0.33985463","0.23717906","","","",""
"262","0.33877417","4.265786","6.593419","-0.5347464","-0.32494095","0.24037485","","","",""
"265","0.40099666","4.237208","6.6359262","-0.56670433","-0.31215778","0.23930958","","","",""
"267","0.48236462","4.2324452","6.758725","-0.59546643","-0.29298306","0.23824431","-10.05817","-35.764576","-43.319405",""
"270","0.5780916","4.151475","6.886247","-0.61783695","-0.2801999","0.23930958","","","",""
"272","0.6546731","4.1086082","6.900416","-0.6391422","-0.26741672","0.23824431","","","",""
"274","","","","","","","","","",""
"275","0.73604107","4.060979","6.9854302","-0.6593822","-0.25995988","0.23398326","","","",""
"277","0.78390455","3.9990604","7.1507363","-0.6679044","-0.24717672","0.22652642","-10.674271","-34.233772","-44.237854",""
"280","0.8652724","3.956194","7.2924275","-0.6753612","-0.23865461","0.22013484","","","",""
"282","0.9514266","3.9180903","7.424672","-0.68281806","-0.22374092","0.212678","","","",""
"285","0.941854","3.9038014","7.4860716","-0.6774917","-0.21308829","0.20628642","","","",""
"287","1.0423672","3.827594","7.708054","-0.6657738","-0.19604407","0.19989483","-10.846721","-34.394966","-44.66375",""
"290","1.0806581","3.8228314","7.793069","-0.65086013","-0.18326092","0.1892422","","","",""
"292","1.0662991","3.7561495","7.8544683","-0.6316854","-0.17580406","0.18072009","","","",""
"295","1.0710853","3.6847055","7.8686376","-0.60931486","-0.1544988","0.17645903","","","",""
"297","1.0758717","3.6513646","7.8544683","-0.585879","-0.14171563","0.17006744","-11.264122","-34.364395","-44.60122","140.12372"
"300","1.0806581","3.6275501","7.755285","-0.56670433","-0.13212827","0.16474113","","","",""
"302","1.037581","3.632313","7.6844387","-0.5464643","-0.12467141","0.15941481","","","",""
"304","1.0327947","3.622787","7.5852556","-0.5294201","-0.12360615","0.15515377","","","",""
"307","1.0232219","3.5418167","7.396334","-0.5123759","-0.12573668","0.15302323","-11.915389","-33.393696","-44.8656",""
"309","1.0136492","3.5322907","7.2829814","-0.49959272","-0.12999773","0.14663166","","","",""
"312","0.9609995","3.5227652","7.212136","-0.4857443","-0.13745458","0.14024007","","","",""
"314","0.9753585","3.4846616","7.0184917","-0.47615692","-0.15130301","0.14024007","","","",""
"317","0.9753585","3.5132391","6.933477","-0.46870008","-0.16834722","0.13704428","-11.641356","-33.031254","-45.69888",""
"319","0.9753585","3.537054","6.8390164","-0.4623085","-0.18432617","0.12958744","","","",""
"322","1.0040766","3.494187","6.6926026","-0.4612432","-0.1981746","0.12639165","","","",""
"324","0.9753585","3.5037131","6.6123114","-0.45804742","-0.21415356","0.12639165","","","",""
"327","0.99450386","3.5227652","6.560358","-0.45804742","-0.23226303","0.12639165","-11.819896","-33.19834","-45.815556",""
"329","0.98014486","3.4560835","6.413944","-0.4623085","-0.24504618","0.123195864","","","",""
"332","0.99450386","3.446558","6.258084","-0.46976534","-0.25995988","0.11786955","","","",""
"334","1.0184356","3.5132391","6.26753","-0.48041797","-0.27487355","0.11680428","","","",""
"337","0.99450386","3.4417946","6.0880547","-0.49746218","-0.28659147","0.11680428","-12.538175","-33.133057","-46.32457",""
"339","0.99450386","3.422743","5.9227486","-0.51983273","-0.29617882","0.11573902","","","",""
"342","0.956213","3.432269","5.8802414","-0.54539907","-0.308962","0.11573902","","","",""
"344","0.9514266","3.413217","5.9321947","-0.5794875","-0.31215778","0.11786955","","","",""
"347","0.941854","3.4417946","5.8755183","-0.6125106","-0.31215778","0.114673756","-12.347462","-32.954185","-46.826324",""
"349","0.8939905","3.446558","5.8707952","-0.6497949","-0.31322303","0.11147796","","","",""
"352","0.8700588","3.432269","5.9369173","-0.69347066","-0.3057662","0.113608494","","","",""
"354","0.8509134","3.3894022","5.9558096","-0.7371465","-0.3025704","0.11573902","","","",""
"357","0.90356326","3.3512986","5.9227486","-0.7765612","-0.29085252","0.113608494","-12.457623","-32.740604","-47.89963",""
"359","0.8509134","3.432269","5.965256","-0.8191718","-0.28126514","0.11786955","","","",""
"362","0.8365544","3.3989282","5.9558096","-0.8639128","-0.27274305","0.12106534","","","",""
"364","0.8844178","3.3512986","5.842457","-0.90226233","-0.26422092","0.12000007","","","",""
"367","0.84134066","3.3322468","5.9227486","-0.94700336","-0.25782934","0.123195864","-12.845948","-32.155823","-48.181946",""
"369","0.86048615","3.3036692","5.965256","-0.9906792","-0.25676408","0.123195864","","","",""
"372","0.9131359","3.298906","6.026655","-1.0332898","-0.24930726","0.12532638","","","",""
"374","0.90834963","3.2703283","6.11167","-1.0769656","-0.2418504","0.1274569","","","",""
"377","0.941854","3.2703283","6.2014074","-1.1163803","-0.23545882","0.12958744","-12.795836","-31.792828","-48.21091",""
"379","1.0136492","3.2322247","6.343098","-1.1525992","-0.2216104","0.12852217","","","",""
"382","1.0471537","3.2131732","6.5178504","-1.1909487","-0.21202303","0.1274569","","","",""
"384","1.0327947","3.2369878","6.607588","-1.2250372","-0.20243566","0.1274569","","","",""
"387","1.037581","3.2608023","6.650095","-1.2591256","-0.18858723","0.12639165","-12.736596","-31.420994","-48.7037",""
"389","1.0758717","3.2893803","6.754002","-1.2910835","-0.16728196","0.12958744","","","",""
"392","1.1237353","3.2941432","6.8295703","-1.3262372","-0.14597669","0.1306527","","","",""
"394","1.1715987","3.3036692","6.9193077","-1.3571298","-0.12680195","0.1274569","","","",""
"396","1.2529665","3.3608246","6.933477","-1.3858919","-0.10656193","0.11893481","","","",""
"397","","","","","","","-13.142909","-30.64206","-49.456512",""
"399","1.2960438","3.3608246","7.023215","-1.4189152","-0.092713505","0.10934744","","","",""
"401","1.3869845","3.4084542","7.1176753","-1.4498078","-0.06927771","0.09976006","","","",""
"404","1.4539932","3.4560835","7.226305","-1.4753741","-0.047972444","0.09017269","","","",""
"406","1.5401474","3.4846616","7.344381","-1.5041362","-0.031993493","0.0784548","","","",""
"407","","","","","","","-13.00339","-30.089603","-50.126213",""
"409","1.5401474","3.5227652","7.4199495","-1.5350288","-0.014949271","0.06460637","","","",""
"411","1.6310881","3.5703945","7.5616403","-1.5659215","0.0052907346","0.04436636","","","",""
"414","1.7220287","3.5227652","7.674993","-1.5914878","0.028726533","0.024126353","","","",""
"416","1.7124561","3.551343","7.840299","-1.6149236","0.0500318","0.0049516093","","","",""
"417","","","","","","","-12.869962","-29.543037","-50.48669",""
"419","1.7794651","3.4656096","7.892253","-1.6394247","0.0766634","-0.015288398","","","",""
"421","1.8369011","3.3751132","7.9111447","-1.6617953","0.09903393","-0.03659367","","","",""
"424","1.8464738","3.341773","8.13785","-1.6799047","0.115012884","-0.057898935","","","",""
"426","1.918269","3.2750916","8.265371","-1.6990794","0.12779604","-0.07813894","","","",""
"427","","","","","","","-13.047627","-28.23402","-51.151787",""
"429","2.0283551","3.2369878","8.468463","-1.7044058","0.13631815","-0.09837895","","","",""
"431","2.124082","3.1655433","8.756567","-1.7033405","0.13844867","-0.11755369","","","",""
"434","2.124082","3.1655433","8.992719","-1.6937531","0.14270973","-0.13992423","","","",""
"436","2.1049368","3.1274397","9.158025","-1.673513","0.14803605","-0.16016424","","","",""
"437","","","","","","","-12.622179","-27.519173","-51.875046",""
"439","2.066646","3.0559957","9.309162","-1.6436857","0.1522971","-0.1761432","","","",""
"441","1.999637","2.9369218","9.375284","-1.6042709","0.15655816","-0.19212215","","","",""
"444","1.8943375","2.9702623","9.375284","-1.5627257","0.1608192","-0.2081011","","","",""
"446","1.7938241","2.9321587","9.365838","-1.5190499","0.15762341","-0.22301479","","","",""
"447","","","","","","","-12.718484","-26.76611","-52.520145",""
"449","1.7268151","2.8368998","9.2761","-1.4721783","0.14270973","-0.23473269","","","",""
"451","1.6215154","2.8273737","9.148579","-1.4253067","0.12140446","-0.24432005","","","",""
"454","1.5114294","2.7892704","9.049396","-1.3837614","0.09370761","-0.25284216","","","",""
"456","1.35348","2.7321148","8.983273","-1.3454119","0.059619173","-0.2581685","","","",""
"457","","","","","","","-12.890061","-25.451199","-53.49446",""
"459","1.3104028","2.6797223","8.907704","-1.3081278","0.021269688","-0.25923374","","","",""
"461","1.1668123","2.6987743","8.879366","-1.2761698","-0.022406116","-0.2581685","","","",""
"464","1.1380943","2.7321148","8.766013","-1.2452772","-0.06501665","-0.25603798","","","",""
"466","1.0854445","2.6987743","8.756567","-1.2165151","-0.104431406","-0.24751584","","","",""
"467","","","","","","","-12.851853","-24.888153","-54.303135",""
"469","1.0615127","2.7082999","8.751844","-1.1973404","-0.14491142","-0.240059","","","",""
"471","1.0758717","2.7702184","8.747121","-1.176035","-0.17899986","-0.2283411","","","",""
"474","1.0423672","2.7559295","8.732952","-1.1611214","-0.21308829","-0.219819","","","",""
"476","1.1093762","2.7797444","8.761291","-1.1568604","-0.25463355","-0.20916636","","","",""
"477","","","","","","","-13.2100115","-24.48575","-54.7334",""
"479","1.1859577","2.8273737","8.794352","-1.1494035","-0.28659147","-0.20384005","","","",""
"481","1.1955304","2.9178698","8.926597","-1.1440772","-0.31109253","-0.1963832","","","",""
"484","1.2768984","3.0607584","9.120241","-1.151534","-0.33985463","-0.19318742","","","",""
"486","1.4061297","3.1322029","9.266655","-1.147273","-0.3558336","-0.19425267","","","",""
"487","","","","","","","-13.150771","-24.113914","-55.226192",""
"488","1.4827113","3.1607807","9.38473","-1.147273","-0.36329043","-0.19531794","","","",""
"491","1.4827113","3.2179358","9.540589","-1.147273","-0.36435568","-0.19957899","","","",""
"493","1.5401474","3.2465136","9.592544","-1.1440772","-0.36435568","-0.21129689","","","",""
"496","1.5784383","3.3274841","9.6492195","-1.1451424","-0.36115992","-0.22088426","","","",""
"497","","","","","","","-13.1668005","-23.180233","-56.0482",""
"498","1.6119426","3.3560617","9.734234","-1.1408813","-0.35796413","-0.23366742","","","",""
"501","1.6358745","3.3751132","9.7153425","-1.1387508","-0.35157254","-0.24858113","","","",""
"503","1.7124561","3.4179797","9.6822815","-1.1387508","-0.3462462","-0.26349482","","","",""
"506","1.7076697","3.3751132","9.658667","-1.139816","-0.3462462","-0.27947375","","","",""
"507","","","","","","","-13.511102","-22.23835","-56.050255",""
"508","1.6885244","3.3370097","9.564205","-1.1387508","-0.3526378","-0.29758325","","","",""
"511","1.7316015","3.3465357","9.658667","-1.139816","-0.36222517","-0.31249693","","","",""
"513","1.7363877","3.3512986","9.6492195","-1.1408813","-0.37500834","-0.33060643","","","",""
"514","","","","","","","","","",""
"516","1.8177558","3.3608246","9.635051","-1.1462077","-0.38246518","-0.35084644","","","",""
"517","","","","","","","-13.965842","-21.294718","-55.72746",""
"518","1.8416873","3.3512986","9.724789","-1.1494035","-0.39311782","-0.36789063","","","",""
"521","1.8512601","3.3465357","9.80508","-1.1557951","-0.41016203","-0.38706538","","","",""
"523","1.9230555","3.3560617","10.012894","-1.1589909","-0.42720625","-0.40517482","","","",""
"526","1.9757053","3.3465357","10.1923685","-1.1600561","-0.44105467","-0.42221907","","","",""
"527","","","","","","","-14.069919","-21.075241","-57.10998",""
"528","2.0139961","3.3703506","10.395459","-1.1632519","-0.44957677","-0.43926325","","","",""
"531","2.0092099","3.3370097","10.593826","-1.1643171","-0.45383784","-0.454177","","","",""
"533","1.9948505","3.3370097","10.768579","-1.1664476","-0.4549031","-0.46909067","","","",""
"536","2.0905776","3.3798766","10.938608","-1.1621866","-0.45277256","-0.48826537","","","",""
"537","","","","","","","-14.186169","-20.86755","-57.874065",""
"538","2.1958776","3.2560396","11.06613","-1.1536645","-0.44744626","-0.5042443","","","",""
"541","2.1815183","3.1655433","11.217266","-1.1504687","-0.4549031","-0.51596224","","","",""
"543","2.2006636","3.0702844","11.429803","-1.1387508","-0.46555573","-0.52874535","","","",""
"546","2.2245955","2.9940772","11.703738","-1.1195761","-0.47088206","-0.5372675","","","",""
"547","","","","","","","-14.240409","-20.496912","-57.887394",""
"548","2.2150226","2.9607363","11.925721","-1.0982708","-0.46662098","-0.5415285","","","",""
"551","2.1623728","2.841663","12.067412","-1.0737698","-0.4549031","-0.5521812","","","",""
"553","2.1528","2.798796","12.223271","-1.0460728","-0.45064205","-0.5564422","","","",""
"554","","","","","","","","","",""
"556","2.1049368","2.8130848","12.279948","-1.0151802","-0.44744626","-0.5500506","","","",""
"557","","","","","","","-14.268616","-19.575012","-58.090958",""
"558","2.1528","2.8321369","12.350794","-0.9821571","-0.45277256","-0.5521812","","","",""
"561","2.1815183","2.8368998","12.46887","-0.95339495","-0.45596835","-0.5564422","","","",""
"563","2.1671593","2.8559518","12.525546","-0.9235676","-0.46555573","-0.55537695","","","",""
"566","2.1671593","2.9607363","12.596391","-0.88947916","-0.48259994","-0.55537695","","","",""
"567","","","","","","","-14.789498","-18.060692","-58.561207",""
"568","2.1719456","2.9512107","12.690852","-0.8532602","-0.49538308","-0.5543117","","","",""
"571","2.1958776","2.9845512","12.719191","-0.81810653","-0.50284","-0.55111593","","","",""
"573","2.2533135","3.0845733","12.903389","-0.7840181","-0.5049705","-0.5500506","","","",""
"576","2.2293816","3.0702844","12.7758665","-0.74992967","-0.5007094","-0.55537695","","","",""
"577","","","","","","","-15.539026","-17.076454","-59.119175",""
"578","2.219809","3.1322029","12.643621","-0.71158016","-0.50390524","-0.5575075","","","",""
"580","2.2485273","3.1798322","12.747528","-0.6774917","-0.50603575","-0.5564422","","","",""
"583","2.234168","3.1464918","12.67196","-0.6487296","-0.50816625","-0.55857277","","","",""
"585","2.2485273","3.1750693","12.534991","-0.6210328","-0.5209494","-0.5607033","","","",""
"587","","","","","","","-15.708429","-17.234703","-59.699684",""
"588","2.2580998","3.2608023","12.568053","-0.5965317","-0.52627575","-0.56496435","","","",""
"590","2.1671593","3.3131948","12.525546","-0.5741612","-0.5316021","-0.5681601","","","",""
"593","2.2580998","3.3798766","12.525546","-0.5549864","-0.54331994","-0.5724212","","","",""
"594","","","","","","","","","",""
"595","2.2868178","3.4751356","12.56333","-0.5368769","-0.5518421","-0.5745517","","","",""
"596","","","","","","","","","","102.33886"
"597","","","","","","","-15.913002","-17.953053","-59.62613",""
"598","2.3633993","3.5608685","12.586946","-0.5187675","-0.56355995","-0.58200854","","","",""
"600","2.3442543","3.713283","12.638898","-0.50172323","-0.57527786","-0.59053063","","","",""
"603","2.4351947","3.827594","12.596391","-0.48148322","-0.58806103","-0.5990528","","","",""
"605","2.411263","3.8942754","12.605838","-0.4623085","-0.6008442","-0.61077064","","","",""
"607","","","","","","","-16.410679","-18.103104","-59.38669",""
"608","2.353827","3.9990604","12.568053","-0.43674216","-0.6072358","-0.62035805","","","",""
"610","2.3586133","4.1038456","12.596391","-0.41011056","-0.6114968","-0.6299454","","","",""
"613","2.3251088","4.1800528","12.5161","-0.38241372","-0.6072358","-0.63740224","","","",""
"615","2.2676725","4.2610226","12.398024","-0.3536516","-0.6136274","-0.6480549","","","",""
"617","","","","","","","-17.429237","-16.738832","-59.6175",""
"618","2.2676725","4.280075","12.265779","-0.32382423","-0.62001896","-0.65764225","","","",""
"620","2.2054498","4.375334","12.161872","-0.29612738","-0.6296063","-0.6704254","","","",""
"623","2.1480138","4.522985","12.105196","-0.26523474","-0.64878106","-0.6853391","","","",""
"625","2.0762186","4.6182446","12.0107355","-0.23647262","-0.6679558","-0.7013181","","","",""
"626","","","","","","","-17.784355","-16.333483","-60.20237",""
"628","1.9852778","4.7373185","11.883214","-0.2077105","-0.6892611","-0.71623176","","","",""
"630","1.9613463","4.804","11.817092","-0.18214418","-0.71056634","-0.7354065","","","",""
"633","1.8321148","4.8230515","11.78403","-0.15444733","-0.7340021","-0.75351596","","","",""
"634","","","","","","","","","",""
"635","1.6215154","4.8563924","11.6565075","-0.12461994","-0.7563727","-0.7684297","","","",""
"636","","","","","","","-18.05398","-17.217724","-60.724953",""
"638","1.477925","4.908785","11.571493","-0.1054452","-0.7723516","-0.7833434","","","",""
"640","1.3869845","4.9135475","11.481756","-0.08307467","-0.7851348","-0.80038756","","","",""
"643","1.2864711","4.9183106","11.30228","-0.058573607","-0.8000485","-0.80890965","","","",""
"645","1.1572397","4.832577","11.122806","-0.035137814","-0.8160274","-0.82062757","","","",""
"646","","","","","","","-18.852533","-17.333063","-61.057056",""
"648","1.0232219","4.765896","11.042515","-0.021289384","-0.83307165","-0.83341074","","","",""
"650","0.92270863","4.699215","10.900823","-0.007440959","-0.85544217","-0.8387371","","","",""
"653","0.80305004","4.7230296","10.749686","0.0042769397","-0.87994325","-0.84193283","","","",""
"655","0.7168957","4.670637","10.64578","0.010668521","-0.9097706","-0.8440634","","","",""
"656","","","","","","","-19.61511","-17.836716","-60.44817",""
"658","0.76954544","4.6563478","10.551319","0.011733784","-0.9481201","-0.84725916","","","",""
"660","0.7647592","4.75637","10.4804735","0.008537994","-0.9779475","-0.8461939","","","",""
"663","0.8221953","4.770659","10.475751","0.0010811491","-1.0131013","-0.84725916","","","",""
"665","0.6738186","4.875444","10.357675","-0.01063675","-1.0493202","-0.84725916","","","",""
"666","","","","","","","-20.480082","-17.5932","-60.175163",""
"668","0.5924506","4.9325995","10.258491","-0.025550438","-1.088735","-0.8493897","","","",""
"670","0.53022814","4.999281","10.074293","-0.04046413","-1.1238887","-0.850455","","","",""
"673","0.47279194","5.0183325","9.9703865","-0.058573607","-1.1633035","-0.8525855","","","",""
"674","","","","","","","","","",""
"675","0.4488602","5.099303","9.908987","-0.0820094","-1.201653","-0.854716","","","",""
"676","","","","","","","-21.024822","-18.103302","-60.06137",""
"678","0.39142403","5.118355","9.857033","-0.10437994","-1.2346761","-0.8579118","","","",""
"680","0.31484243","5.1993246","9.819249","-0.12994626","-1.2602425","-0.86004233","","","",""
"683","0.27655163","5.208851","9.819249","-0.15444733","-1.2858088","-0.8643034","","","",""
"685","0.25740626","5.17551","9.790912","-0.17894839","-1.3092445","-0.8685644","","","",""
"686","","","","","","","-21.660656","-19.330555","-60.35349",""
"687","0.24783358","5.2612433","9.772018","-0.20557998","-1.3252236","-0.87176025","","","",""
"690","0.15689293","5.3326874","9.819249","-0.2311463","-1.3369414","-0.87602127","","","",""
"692","0.1042431","5.285058","9.842864","-0.2577779","-1.3422678","-0.8770865","","","",""
"695","0.06595233","5.299347","9.927878","-0.28014842","-1.3454635","-0.8834781","","","",""
"696","","","","","","","-22.802427","-19.240593","-60.490746",""
"697","-0.053706363","5.194562","9.960939","-0.30251896","-1.3358761","-0.8877392","","","",""
"700","-0.21644223","5.089777","10.027062","-0.31956318","-1.3060488","-0.8973265","","","",""
"702","-0.3935371","5.0659623","9.927878","-0.33128107","-1.2570467","-0.90691394","","","",""
"705","-0.5658456","4.908785","9.814526","-0.34406424","-1.210175","-0.91756654","","","",""
"706","","","","","","","-24.17116","-19.15302","-59.669075",""
"707","-0.8386675","4.870681","9.781465","-0.3621737","-1.1707603","-0.9239581","","","",""
"710","-1.0684122","4.8278146","9.753126","-0.37389162","-1.1366719","-0.92502344","","","",""
"712","-1.341234","4.9421253","9.823972","-0.3888053","-1.1047139","-0.9260887","","","",""
"714","","","","","","","","","",""
"715","-1.547047","5.061199","9.989278","-0.40052322","-1.0791477","-0.9239581","","","",""
"716","","","","","","","-24.951723","-19.462517","-59.530685",""
"717","-1.8390143","5.208851","10.093184","-0.41011056","-1.0386677","-0.91117495","","","",""
"720","-2.1549132","5.2612433","10.197091","-0.4122411","-1.000318","-0.89200026","","","",""
"722","-2.4229486","5.370791","10.206538","-0.41117585","-0.95344645","-0.86536866","","","",""
"725","-2.7340615","5.489865","10.230153","-0.403719","-0.90231377","-0.83128023","","","",""
"726","","","","","","","-25.54049","-20.329723","-59.697155",""
"727","-3.0786784","5.6184645","10.239599","-0.39093584","-0.8490506","-0.79186547","","","",""
"730","-3.3754315","5.789931","10.220707","-0.37389162","-0.7936569","-0.7471244","","","",""
"732","-3.6769714","5.9518714","10.135693","-0.35471687","-0.741459","-0.69812226","","","",""
"735","-3.9067166","6.0947604","10.050677","-0.3302158","-0.6967179","-0.6501854","","","",""
"736","","","","","","","-26.583996","-20.253294","-59.540825",""
"737","-4.1412477","6.2281227","10.06957","-0.30784526","-0.64452","-0.6033138","","","",""
"740","-4.4332147","6.4376926","10.003447","-0.2833442","-0.6008442","-0.55857277","","","",""
"742","-4.6533866","6.580581","9.927878","-0.2631042","-0.55503786","-0.51809275","","","",""
"745","-4.854413","6.685366","9.9373255","-0.24605998","-0.50603575","-0.47548226","","","",""
"746","","","","","","","-27.409668","-20.183315","-59.87959","129.50465"
"747","-5.00279","6.7663364","9.890095","-0.2311463","-0.46022943","-0.4296759","","","",""
"750","-5.136808","6.8901734","9.894818","-0.22049367","-0.41229254","-0.38386956","","","",""
"752","-5.25168","6.9235144","9.956218","-0.2077105","-0.36861676","-0.34019378","","","",""
"754","","","","","","","","","",""
"755","-5.3952703","7.023536","10.102632","-0.19705787","-0.3238757","-0.29545268","","","",""
"756","","","","","","","-28.01474","-20.328669","-59.46991",""
"757","-5.452707","7.075928","10.050677","-0.1842747","-0.26848197","-0.24858113","","","",""
"760","-5.476639","7.128321","10.22543","-0.16829576","-0.21202303","-0.20170952","","","",""
"762","-5.423989","7.1664243","10.31989","-0.15231681","-0.15343353","-0.15803371","","","",""
"765","-5.438348","7.2235804","10.282106","-0.12781574","-0.09377877","-0.115423165","","","",""
"766","","","","","","","-29.135479","-20.429916","-59.291283",""
"767","-5.3521934","7.266447","10.1923685","-0.09798835","-0.042646125","-0.07174736","","","",""
"770","-5.3474073","7.342654","10.135693","-0.06603045","-0.0074924277","-0.03446314","","","",""
"772","-5.3474073","7.390284","10.263214","-0.03194202","0.021269688","-0.0025052354","","","",""
"775","-5.3234754","7.547461","10.22543","0.0042769397","0.045770746","0.02945267","","","",""
"776","","","","","","","-29.805607","-20.741163","-59.47774",""
"777","-5.342621","7.571275","10.277383","0.045822214","0.07027181","0.06247584","","","",""
"780","-5.3952703","7.566513","10.362397","0.08949803","0.08198971","0.09549902","","","",""
"782","-5.4000573","7.614143","10.527703","0.13636962","0.09157708","0.12639165","","","",""
"785","-5.3665524","7.6284313","10.669395","0.1832412","0.09903393","0.16048008","","","",""
"786","","","","","","","-30.138605","-21.263603","-59.549828",""
"787","-5.3474073","7.604616","11.061406","0.23437385","0.104360245","0.19456851","","","",""
"789","-5.2803984","7.5760384","11.288112","0.29083282","0.11181709","0.23078747","","","",""
"792","-5.261253","7.461728","11.670677","0.35155284","0.12779604","0.26807168","","","",""
"794","-5.112876","7.371232","12.081581","0.4229255","0.1491013","0.3000296","","","",""
"796","","","","","","","-30.844978","-21.398369","-59.279125",""
"797","-4.9836445","7.2235804","12.4877615","0.4953634","0.18318973","0.33198753","","","",""
"799","-4.868772","7.1521354","12.993126","0.57845396","0.20875606","0.36501065","","","",""
"802","-4.7634726","7.037825","13.493768","0.6679361","0.24390976","0.39696857","","","",""
"804","-4.6916776","6.8711214","13.975516","0.76594037","0.2929119","0.42466542","","","",""
"806","","","","","","","-31.580442","-22.087341","-58.663574",""
"807","-4.634241","6.6520257","14.532834","0.873532","0.34724033","0.4598191","","","",""
"809","-4.548087","6.4234037","15.028752","0.9917762","0.41754773","0.49497285","","","",""
"812","-4.4619327","6.118575","15.378257","1.1206731","0.49531198","0.5258655","","","",""
"814","-4.385351","5.8280344","15.656915","1.2517005","0.57414144","0.5588887","","","",""
"816","","","","","","","-32.09915","-22.046183","-58.740017",""
"817","-4.270479","5.480339","15.954467","1.3933805","0.6519057","0.59830344","","","",""
"819","-4.2226157","4.96594","16.143389","1.5414522","0.7360615","0.64517504","","","",""
"822","-4.0981703","4.489645","16.370094","1.6927196","0.8180868","0.69204664","","","",""
"824","-3.9354346","4.1943417","16.365372","1.8471829","0.90437317","0.74744034","","","",""
"826","","","","","","","-32.468403","-22.392143","-58.35494",""
"827","-3.8205621","3.851409","16.299248","1.9952545","0.9938553","0.8060298","","","",""
"829","-3.7583394","3.5656316","16.148111","2.139065","1.0769458","0.8646193","","","",""
"832","-3.7009034","3.3036692","15.930852","2.280745","1.1589711","0.9327962","","","",""
"834","-3.6769714","3.1369658","15.553008","2.4085765","1.2335395","1.0052341","","","",""
"836","","","","","","","-32.653896","-24.04123","-57.613987",""
"837","-3.6865444","3.1036248","15.170443","2.5257556","1.2995858","1.0798025","","","",""
"839","-3.7009034","3.0750473","14.745371","2.6301515","1.3517838","1.158632","","","",""
"842","-3.7009034","3.2417507","14.240006","2.7153726","1.3869374","1.2300047","","","",""
"844","-3.6673992","3.4179797","13.777149","2.786745","1.4188954","1.2971163","","","",""
"846","","","","","","","-33.218586","-25.096699","-57.619175",""
"847","-3.6482534","3.7085204","13.389861","2.8357472","1.4348743","1.3599669","","","",""
"849","-3.6195354","4.070505","12.865604","2.8655746","1.4327438","1.4132301","","","",""
"852","-3.5764585","4.4801188","12.393301","2.8804884","1.4114385","1.4569058","","","",""
"854","-3.5381677","4.9468884","11.916275","2.8772926","1.3709584","1.4931248","","","",""
"856","","","","","","","-33.376965","-26.931103","-56.87156",""
"857","-3.504663","5.389843","11.614","2.8559873","1.3134342","1.5240175","","","",""
"859","-3.475945","5.8375607","11.425079","2.8197684","1.2335395","1.5474533","","","",""
"862","-3.499877","6.2328854","11.165313","2.769701","1.13447","1.5634322","","","",""
"864","-3.490304","6.699655","11.103913","2.7121768","1.0226173","1.5740849","","","",""
"866","","","","","","","-33.6167","-28.209553","-56.143932",""
"867","-3.471159","7.042588","11.118082","2.6354778","0.89265525","1.5836722","","","",""
"869","-3.3419275","7.342654","11.151144","2.5523872","0.7477794","1.5868679","","","",""
"872","-3.0930374","7.637957","11.269219","2.4554482","0.57733727","1.5858027","","","",""
"874","-2.7244885","7.799897","11.519541","2.3510523","0.38772035","1.5772806","","","",""
"876","","","","","","","-35.129086","-27.940804","-54.69486",""
"877","-2.2985034","7.8380017","12.072135","2.240265","0.19490764","1.566628","","","",""
"879","-1.8294417","7.947549","12.728636","2.1198902","-0.014949271","1.5474533","","","",""
"882","-1.2981569","7.823713","13.455982","1.9899281","-0.22267567","1.5165606","","","",""
"884","-0.78601766","7.595091","14.33919","1.8620965","-0.4197494","1.4846027","","","",""
"886","","","","","","","-36.53407","-27.67675","-53.416023",""
"887","-0.24037394","7.337891","15.283796","1.7278733","-0.60830104","1.4505142","","","",""
"889","0.39142403","6.9711432","16.360647","1.5904543","-0.7936569","1.4121648","","","",""
"892","1.0136492","6.490085","17.640589","1.4562311","-0.9513159","1.3748806","","","",""
"894","1.6645925","5.9899755","19.066944","1.3294648","-1.0898002","1.3429227","","","",""
"896","2.2533135","5.3946056","20.531084","1.204829","-1.1910003","1.3184216","-37.688015","-27.598568","-52.93484",""
"899","2.865966","4.742081","22.108576","1.0951068","-1.246394","1.2992468","","","",""
"901","3.3972507","4.0990825","23.65773","1.0024289","-1.2559813","1.2853984","","","",""
"904","3.9046035","3.537054","25.140762","0.9257299","-1.2155014","1.287529","","","",""
"906","4.402384","3.1417286","26.519888","0.8703362","-1.129215","1.2971163","-39.534477","-27.11568","-51.754757",""
"909","4.7134967","2.8130848","27.828167","0.833052","-0.99818754","1.3098994","","","",""
"911","4.861873","2.5844634","28.933357","0.8138772","-0.822419","1.3397268","","","",""
"914","5.2495675","2.070064","29.48595","0.80322456","-0.58806103","1.3940552","","","",""
"916","5.71863","1.4889838","29.82601","0.79896355","-0.35050726","1.4441227","-40.598423","-25.583767","-51.064568",""
"919","6.0680327","1.0317402","30.350266","0.80322456","-0.11934509","1.4835374","","","",""
"921","6.4653","0.58402264","30.912306","0.8287909","0.12992656","1.5208217","","","",""
"924","6.795558","0.2125122","31.153181","0.873532","0.39837298","1.5527796","","","",""
"926","7.0492344","-0.06850213","31.32321","0.9438394","0.67960256","1.5719543","-41.16469","-23.901802","-50.61382",""
"929","7.130602","-0.33999047","31.290148","1.0386478","0.96828896","1.5953901","","","",""
"931","7.030089","-0.5829011","30.883968","1.1600878","1.2580405","1.6177607","","","",""
"934","6.876926","-0.7829452","30.081053","1.2975068","1.5296828","1.643327","","","",""
"936","6.6615405","-0.8924931","29.03254","1.4445132","1.7661712","1.6752849","-41.634647","-22.9729","-49.517975",""
"939","6.3456416","-0.9210708","27.89429","1.585128","1.9728323","1.6965902","","","",""
"941","5.9052973","-0.80676","26.49155","1.7193512","2.1603189","1.7168301","","","",""
"944","5.4936714","-0.6495825","24.93295","1.8482481","2.3094556","1.7317438","","","",""
"946","4.9719596","-0.52098274","23.175982","1.9643618","2.4213085","1.7434617","-41.528614","-22.45285","-48.486965",""
"949","4.36888","-0.3447534","21.357615","2.0676923","2.504399","1.7530491","","","",""
"951","3.828022","-0.14947236","19.378666","2.147587","2.5395527","1.7637017","","","",""
"954","3.3828917","0.06962355","17.32887","2.2029808","2.5214431","1.7764848","","","",""
"956","2.976052","0.21727508","15.397149","2.2413301","2.463919","1.7871375","-40.756092","-22.888771","-47.964626",""
"959","2.6745121","0.26490468","13.522105","2.256244","2.363784","1.7999207","","","",""
"961","2.4208357","0.41731924","11.703738","2.2466564","2.2210388","1.8073776","","","",""
"964","2.2772453","0.51257825","10.097908","2.2232208","2.0495315","1.8084428","","","",""
"966","2.2102365","0.5268671","8.671553","2.179545","1.8556534","1.8084428","-40.03586","-22.214529","-47.807125",""
"969","2.1671593","0.5887855","7.363273","2.127347","1.6404701","1.7999207","","","",""
"971","2.1480138","0.59354854","6.343098","2.0634313","1.4178301","1.7882028","","","",""
"974","2.1623728","0.7126223","5.337093","1.9888629","1.1877332","1.7711586","","","",""
"976","2.2389545","0.7697778","4.5483465","1.900446","0.9555058","1.7541144","-39.164207","-21.187878","-47.53961",""
"979","2.3203223","0.81740725","3.8776765","1.8045723","0.7179521","1.7296133","","","",""
"981","2.3921177","0.94124407","3.3959274","1.7033722","0.4825288","1.6965902","","","",""
"984","2.5404944","0.98887354","3.022808","1.601107","0.26841083","1.6603712","","","",""
"986","2.6170762","1.0269772","2.753595","1.4860585","0.062814966","1.6220217","-38.551357","-20.508938","-47.211872",""
"989","2.7845984","0.99839956","2.6355195","1.3699448","-0.13212827","1.5847374","","","",""
"991","2.9951975","1.0746069","2.6402426","1.253831","-0.308962","1.5410616","","","",""
"994","3.2153692","1.0746069","2.7724872","1.1366521","-0.46235994","1.5016469","","","",""
"996","3.454687","1.1222364","2.9803007","1.0194731","-0.59338737","1.4537101","-38.308853","-19.43938","-46.695946",""
"999","3.732295","1.1651028","3.2872977","0.90975094","-0.70204425","1.4047079","","","",""
"1001","3.9476805","1.1555771","3.622633","0.8000288","-0.7915264","1.3535752","","","",""
"1003","4.2827253","1.1746289","4.009921","0.69882876","-0.8639643","1.2992468","","","",""
"1006","4.5364013","1.269888","4.416102","0.6072161","-0.9119012","1.2385268","-38.77882","-18.510477","-45.6001",""
"1008","4.7278557","1.3365693","4.7467136","0.5156034","-0.93746746","1.174611","","","",""
"1011","4.857087","1.3079915","5.1670637","0.43570867","-0.9406633","1.1085646","","","",""
"1013","5.01025","1.3556212","5.4598913","0.364336","-0.9214885","1.0425184","","","",""
"1016","5.048541","1.2937026","5.611028","0.2940286","-0.8948569","0.97434145","-38.961758","-18.155764","-44.360916",""
"1018","5.0581136","1.269888","5.7149353","0.22691701","-0.85757273","0.9040341","","","",""
"1021","5.048541","1.1746289","5.851903","0.16193594","-0.81283164","0.8401182","","","",""
"1023","5.0150366","1.150814","5.866072","0.10228119","-0.7638295","0.77833295","","","",""
"1026","4.9671726","1.1317621","5.823565","0.037300106","-0.7137621","0.72080874","-38.50642","-17.835121","-43.833973",""
"1028","4.794864","1.0460291","5.837734","-0.022354648","-0.6519768","0.6643498","","","",""
"1031","4.694351","0.98887354","5.757442","-0.079878874","-0.5955179","0.6153476","","","",""
"1033","4.4741793","1.0079254","5.658259","-0.13740312","-0.53479785","0.5684761","","","",""
"1034","","","","","","","","","",""
"1036","4.1487074","0.8745628","5.648813","-0.19279681","-0.46662098","0.52480024","-37.95195","-16.051908","-43.56185",""
"1038","3.871099","0.6554669","5.5921364","-0.24925578","-0.38779148","0.48751596","","","",""
"1041","3.727509","0.43160805","5.5071216","-0.3014537","-0.29830936","0.45875385","","","",""
"1043","3.6365683","0.1648826","5.403215","-0.35578212","-0.19178303","0.4331875","","","",""
"1045","","","","","","","","","","66.748825"
"1046","3.5025501","0.007705152","5.2331862","-0.41330636","-0.083126135","0.4193391","-37.633297","-14.068092","-43.26513",""
"1048","3.4211824","-0.19233894","4.968696","-0.46976534","0.023400215","0.40336016","","","",""
"1051","3.30631","-0.37809414","4.7089295","-0.5294201","0.12779604","0.390577","","","",""
"1053","3.177079","-0.4685902","4.496393","-0.5922706","0.22899607","0.38098964","","","",""
"1056","3.0669925","-0.5686123","4.2507954","-0.6519254","0.31847823","0.36927173","-37.259323","-13.191494","-42.758175",""
"1058","2.947334","-0.7353157","3.9674141","-0.7073191","0.4036993","0.36074963","","","",""
"1061","2.8755386","-0.7591304","3.821","-0.7531254","0.48039827","0.35861912","","","",""
"1063","2.8133163","-0.7781822","3.6698632","-0.7904096","0.5507057","0.35435805","","","",""
"1066","2.7510936","-0.79723406","3.4195426","-0.8170412","0.6156868","0.3575538","-36.393757","-12.170736","-42.181442",""
"1068","2.8037436","-0.90678203","3.207006","-0.83408546","0.66788465","0.35968438","","","",""
"1071","2.8228886","-0.87820435","3.0133617","-0.8383465","0.7072994","0.36714122","","","",""
"1073","2.8707523","-0.88296723","2.866948","-0.83408546","0.73712677","0.37140223","","","",""
"1074","","","","","","","","","",""
"1076","2.947334","-0.87344134","2.5788429","-0.8234328","0.7626931","0.37779382","-35.416664","-11.8883095","-41.732662",""
"1078","2.966479","-0.7210268","2.4418752","-0.8063886","0.7754763","0.38312015","","","",""
"1081","2.990411","-0.6591084","2.3049073","-0.78188753","0.774411","0.39164224","","","",""
"1083","3.1100695","-0.48764205","2.0593097","-0.7541907","0.77334577","0.39909908","","","",""
"1086","3.2728057","-0.3066498","1.8514962","-0.72010225","0.76375836","0.39590332","-34.424355","-11.591153","-42.056927",""
"1088","3.454687","-0.1732871","1.681467","-0.6902749","0.7488447","0.39164224","","","",""
"1091","3.6796453","0.13154195","1.4972688","-0.66257805","0.7296699","0.37885913","","","",""
"1093","3.866313","0.39350438","1.3508549","-0.6370117","0.70623416","0.35435805","","","",""
"1096","4.072126","0.58402264","1.3366859","-0.60718435","0.6870594","0.32240012","-33.433132","-10.557416","-42.578094",""
"1098","4.344948","0.79835546","1.2989016","-0.58055276","0.6700152","0.2819201","","","",""
"1101","4.5938377","0.9317182","1.3791931","-0.5571169","0.66149306","0.23611379","","","",""
"1103","4.799651","1.0984216","1.4405924","-0.53368115","0.6646889","0.18711166","","","",""
"1106","4.9336686","1.260362","1.516161","-0.51344115","0.68599415","0.1274569","-32.492016","-9.886675","-43.070305",""
"1108","5.0437546","1.360384","1.5444992","-0.4942664","0.7222131","0.072063215","","","",""
"1110","5.101191","1.3937248","1.4642076","-0.48148322","0.7712152","0.012408454","","","",""
"1113","5.105977","1.3556212","1.360301","-0.46870008","0.82873946","-0.048311565","","","",""
"1114","","","","","","","","","",""
"1115","5.1394815","1.2222583","1.3036245","-0.4559169","0.8873289","-0.103705265","","","",""
"1116","","","","","","","-31.678244","-9.756605","-43.511253",""
"1118","5.125122","1.1174734","1.1949949","-0.45272112","0.9512448","-0.15909898","","","",""
"1120","5.110763","1.0174514","1.0721961","-0.44952533","1.0130299","-0.2166232","","","",""
"1123","5.077259","0.9460071","0.9966275","-0.45378637","1.0705541","-0.2698864","","","",""
"1125","5.024609","0.8316962","0.9493972","-0.45485163","1.1302088","-0.3252801","","","",""
"1126","","","","","","","-30.510437","-9.295307","-43.564228",""
"1128","4.9528136","0.7173853","0.916336","-0.4559169","1.1781458","-0.38173905","","","",""
"1130","4.842728","0.67451864","0.8643826","-0.45698217","1.2282132","-0.44458959","","","",""
"1133","4.70871","0.5983114","0.7368608","-0.4612432","1.2782805","-0.5010485","","","",""
"1135","4.5887885","0.45076442","0.5951155","-0.45804805","1.3262138","-0.55644166","","","",""
"1136","","","","","","","-29.205078","-9.021079","-43.9354",""
"1138","4.531352","0.3745572","0.2078269","-0.45804805","1.3677591","-0.6107701","","","",""
"1140","4.5026336","0.307876","-0.19835386","-0.46124384","1.3933254","-0.66616386","","","",""
"1143","4.49306","0.2364318","-0.6564879","-0.4687007","1.3901296","-0.7162312","","","",""
"1145","4.4356236","0.16975075","-1.0201614","-0.47615755","1.3539106","-0.76523334","","","",""
"1146","","","","","","","-27.857647","-9.129273","-43.674793",""
"1148","4.430837","0.15546192","-1.2893741","-0.48574492","1.2974516","-0.8174313","","","",""
"1150","4.3590417","0.09354364","-1.5208029","-0.4974628","1.2239484","-0.8664334","","","",""
"1153","4.2441683","0.1078327","-1.6010944","-0.5091807","1.1291399","-0.913305","","","",""
"1154","","","","","","","","","",""
"1155","4.220237","0.14593637","-1.681386","-0.5219639","1.0183525","-0.95698076","","","",""
"1156","","","","","","","-26.815231","-8.469121","-44.028023",""
"1158","4.21545","0.12212175","-1.7191702","-0.52942073","0.9064999","-0.99959123","","","",""
"1160","4.1628","0.0697295","-1.7427856","-0.5422039","0.78079885","-1.0400712","","","",""
"1163","4.086218","0.012574114","-1.643602","-0.5560523","0.64231455","-1.0773555","","","",""
"1165","4.0862174","-0.09221068","-1.4499578","-0.56350917","0.50276506","-1.1103786","","","",""
"1166","","","","","","","-25.559977","-8.557889","-44.370228",""
"1168","4.091004","-0.14936605","-1.2185292","-0.56990075","0.3493671","-1.1434019","","","",""
"1170","4.0527124","-0.23033613","-0.80290264","-0.570966","0.18638179","-1.1700335","","","",""
"1173","4.0862164","-0.25891376","-0.29281536","-0.5688355","0.031918574","-1.1902734","","","",""
"1175","4.196302","-0.34940973","0.40619317","-0.5645744","-0.11721832","-1.2062523","","","",""
"1176","","","","","","","-24.629955","-8.635512","-44.047092",""
"1178","4.234593","-0.36369848","1.0438023","-0.5485955","-0.24931102","-1.2147745","","","",""
"1180","4.3207464","-0.3446464","1.5963969","-0.526225","-0.3728816","-1.2147745","","","",""
"1183","4.411687","-0.33988333","2.2056677","-0.4953323","-0.48366898","-1.212644","","","",""
"1185","4.5361314","-0.31130552","2.8196619","-0.4633744","-0.5859343","-1.2073176","","","",""
"1186","","","","","","","-24.11429","-8.679619","-43.816036",""
"1188","4.6892943","-0.23033518","3.608408","-0.42928597","-0.67115533","-1.2041218","","","",""
"1190","4.847244","-0.14936486","4.3263083","-0.39839333","-0.74359334","-1.1977303","","","",""
"1193","4.966902","-0.09220925","5.0914392","-0.35897857","-0.8000523","-1.1902734","","","",""
"1194","","","","","","","","","",""
"1195","5.08656","-0.020764872","5.7101564","-0.31636804","-0.85118496","-1.1860124","","","",""
"1196","","","","","","","-23.955698","-9.057899","-43.81834","114.50412"
"1198","5.220578","-0.035053447","6.456395","-0.2737575","-0.88846916","-1.176425","","","",""
"1200","5.3210907","0.017339148","7.2876487","-0.22262484","-0.9182965","-1.1657723","","","",""
"1203","5.32109","0.007813349","8.090564","-0.16083956","-0.95025444","-1.1529891","","","",""
"1205","5.3354487","0.0030504465","8.959601","-0.090532154","-0.9694292","-1.1370102","-23.77303","-9.624447","-43.65937",""
"1208","5.3067307","0.06496897","9.814469","-0.013833188","-0.9747555","-1.1167703","","","",""
"1210","5.2636533","0.21738365","10.504032","0.07458369","-0.98221236","-1.0986607","","","",""
"1213","5.239721","0.44124275","11.136918","0.1704574","-0.9854081","-1.0730945","","","",""
"1215","5.139208","0.6555758","11.717851","0.27059215","-0.98860395","-1.0517892","-23.65846","-10.359831","-43.941933",""
"1218","5.081771","0.8460941","12.204323","0.37924904","-0.9960607","-1.034745","","","",""
"1220","4.9956164","1.1509231","12.605782","0.49536276","-1.0035177","-1.0177008","","","",""
"1222","4.765871","1.4462266","12.865547","0.61786807","-1.0205619","-1.0070481","","","",""
"1225","4.5409126","1.7891593","13.026131","0.7403734","-1.0503893","-1.0006565","-23.808197","-10.1845455","-43.005302",""
"1227","4.2728767","2.1606696","12.941116","0.85755235","-1.0919346","-1.0006565","","","",""
"1230","3.9378319","2.670306","12.742747","0.9726008","-1.1483936","-0.99852604","","","",""
"1232","3.6075735","3.1847055","12.549104","1.0780618","-1.2261578","-1.0070481","","","",""
"1234","","","","","","","","","",""
"1235","3.2198792","3.6800528","12.227938","1.1664788","-1.3135095","-1.0155702","-23.451992","-11.326477","-42.22353",""
"1237","2.8034666","4.2230296","11.831203","1.2335904","-1.41684","-1.0326145","","","",""
"1240","2.449276","4.789821","11.368346","1.2793967","-1.534019","-1.0517892","","","",""
"1242","2.0711546","5.2994576","11.047179","1.2975061","-1.6661117","-1.0677681","","","",""
"1245","1.697819","5.756701","10.834643","1.2868536","-1.8067265","-1.083747","-23.238075","-12.811976","-42.015602",""
"1247","1.415424","6.180604","10.759075","1.252765","-1.9516023","-1.0986607","","","",""
"1250","1.1617472","6.48067","10.792136","1.1995019","-2.0964782","-1.1103786","","","",""
"1252","0.8841386","6.814077","11.0330105","1.127064","-2.2360277","-1.1189008","","","",""
"1255","0.6687527","7.076039","11.259716","1.0429082","-2.3681204","-1.1295534","-23.609283","-13.897463","-41.279007",""
"1257","0.51080275","7.299899","11.689512","0.9417082","-2.491691","-1.1380755","","","",""
"1260","0.434221","7.5666246","12.275168","0.831986","-2.6035438","-1.1434019","","","",""
"1262","0.40550253","7.7619057","12.832485","0.72013336","-2.7068741","-1.1508586","","","",""
"1265","0.43422028","7.83335","13.493709","0.6029544","-2.7995522","-1.1508586","-23.854023","-15.918383","-40.045265",""
"1267","0.55387866","7.8905053","14.183272","0.48684067","-2.883708","-1.1540545","","","",""
"1270","0.7357595","7.814298","14.995633","0.3739227","-2.9657333","-1.1540545","","","",""
"1272","1.0181537","7.690462","16.011086","0.27059212","-3.0349753","-1.1529891","","","",""
"1274","","","","","","","","","",""
"1275","1.2670434","7.4999437","17.069044","0.18324053","-3.0871732","-1.156185","-23.847124","-16.860905","-38.759426",""
"1277","1.568583","7.3046627","18.197847","0.11293315","-3.1212618","-1.1540545","","","",""
"1280","1.7935411","7.0760403","19.345545","0.06606156","-3.134045","-1.1465976","","","",""
"1282","1.9945673","6.7902637","20.455458","0.043691017","-3.122327","-1.1412714","","","",""
"1285","2.1381576","6.4139905","21.560646","0.049017332","-3.0893037","-1.124227","-24.104258","-16.680922","-37.652554",""
"1287","2.2147388","6.080584","22.462746","0.07777945","-3.0275185","-1.1018566","","","",""
"1290","2.1812341","5.747177","23.208984","0.13317315","-2.9465585","-1.0709639","","","",""
"1292","2.2099516","5.4947414","23.619888","0.20880684","-2.847489","-1.0315492","","","",""
"1295","2.162088","5.189912","23.832424","0.29722372","-2.7367017","-0.9857428","-24.09127","-17.61755","-36.675934",""
"1297","2.018497","4.9041348","23.752134","0.39522797","-2.621653","-0.9303491","","","",""
"1300","1.9084107","4.6802764","23.34123","0.49536273","-2.5172572","-0.8674986","","","",""
"1302","1.7887515","4.5516768","22.75085","0.5923017","-2.419253","-0.79825646","","","",""
"1305","1.6260155","4.523099","21.971552","0.68284917","-2.3372278","-0.72262275","-24.340137","-18.904839","-35.48448",""
"1307","1.5494335","4.5707293","21.126127","0.7680702","-2.2818341","-0.6480543","","","",""
"1310","1.5398605","4.7279067","20.275984","0.8383776","-2.2520068","-0.5692248","","","",""
"1312","1.5255011","4.899373","19.288868","0.9001629","-2.237093","-0.48933008","","","",""
"1314","","","","","","","","","",""
"1315","1.5590051","5.094654","18.429276","0.95449126","-2.2349625","-0.41369635","-24.464708","-19.654396","-34.18968",""
"1317","1.6116548","5.342328","17.560238","0.99816704","-2.2456152","-0.34445423","","","",""
"1320","1.7504586","5.5280833","16.67703","1.0311903","-2.2594635","-0.27627736","","","",""
"1322","1.8749031","5.809098","15.807993","1.0514302","-2.2871604","-0.21236156","","","",""
"1325","2.0615706","6.0901117","14.844495","1.0610176","-2.3212488","-0.15909839","-24.04041","-20.627491","-32.96637",""
"1327","2.2769556","6.3377857","14.017964","1.0599524","-2.357468","-0.11542256","","","",""
"1329","2.544991","6.5711703","13.205602","1.0471692","-2.399013","-0.0706815","","","",""
"1332","2.7077265","6.899814","12.40741","1.0205376","-2.4362974","-0.03765833","","","",""
"1334","2.9470434","7.2141695","11.547818","0.9843187","-2.4778426","-0.017418321","","","",""
"1335","","","","","","","-24.197102","-21.934202","-31.172112",""
"1337","3.0619156","7.514236","10.976332","0.9363818","-2.5140615","-0.007830948","","","",""
"1339","3.2055056","7.885747","10.42846","0.8809881","-2.5311058","-0.004635157","","","",""
"1342","3.3730273","8.390619","9.809743","0.8106807","-2.5396278","-0.013157264","","","",""
"1344","3.5214038","8.752604","9.318547","0.7297207","-2.532171","-0.033397272","","","",""
"1345","","","","","","","-24.13292","-23.244415","-30.027555","13.114506"
"1347","3.6171308","9.119352","8.874582","0.6327817","-2.5140615","-0.06109412","","","",""
"1349","3.6841393","9.452759","8.336157","0.51453745","-2.4725163","-0.10050886","","","",""
"1352","3.621916","9.767115","7.878023","0.38457534","-2.414992","-0.14738047","","","",""
"1354","3.5836253","10.024313","7.528518","0.23650369","-2.3489456","-0.19957837","","","",""
"1355","","","","","","","-23.556116","-24.601683","-28.497334",""
"1357","3.4878976","10.248173","7.103446","0.07245311","-2.2637246","-0.25923315","","","",""
"1359","3.3490934","10.476795","6.7775564","-0.10438064","-2.167851","-0.3188879","","","",""
"1362","3.2150753","10.5911045","6.4563904","-0.29080176","-2.0762384","-0.38067317","","","",""
"1364","3.0284073","10.810202","6.385545","-0.49213657","-1.9824952","-0.43926266","","","",""
"1365","","","","","","","-23.305624","-25.211224","-26.498674",""
"1367","2.8608847","10.87212","6.4327755","-0.69134086","-1.8717078","-0.49678692","","","",""
"1369","2.7412257","10.772099","6.5414047","-0.8916104","-1.7374846","-0.56709427","","","",""
"1372","2.6598577","10.610157","6.6925416","-1.0940105","-1.5808908","-0.64911956","","","",""
"1374","2.4971216","10.50061","6.8767395","-1.2974758","-1.4125792","-0.7300796","","","",""
"1375","","","","","","","-22.979588","-26.170784","-25.568954",""
"1377","2.276949","10.276751","7.0373225","-1.4966801","-1.2293539","-0.80890906","","","",""
"1379","1.9610494","10.095758","7.245136","-1.6884276","-1.0461285","-0.8845428","","","",""
"1382","1.6547229","9.82427","7.50018","-1.8748486","-0.8511853","-0.9516544","","","",""
"1384","1.2957466","9.509916","7.7977304","-2.0495517","-0.64878523","-1.0177008","","","",""
"1385","","","","","","","-22.149782","-26.9744","-25.187895",""
"1387","1.0181379","9.262243","8.104728","-2.2093413","-0.44638515","-1.0773555","","","",""
"1389","0.6448026","9.014568","8.444786","-2.3520865","-0.24398509","-1.131684","","","",""
"1392","0.27146703","8.676399","8.6951065","-2.4799182","-0.041585024","-1.1785555","","","",""
"1394","-0.09708206","8.33823","8.926536","-2.596032","0.15868452","-1.221166","","","",""
"1395","","","","","","","-21.31085","-27.769173","-25.270664",""
"1397","-0.38426334","7.8905125","9.054056","-2.6961668","0.34830144","-1.2509935","","","",""
"1399","-0.74802613","7.4285064","9.313823","-2.7771268","0.528331","-1.273364","","","",""
"1402","-1.1357206","7.0665216","9.535806","-2.8357162","0.69238156","-1.2840166","","","",""
"1404","-1.561706","6.766456","9.743619","-2.8740656","0.8457795","-1.2861471","","","",""
"1405","","","","","","","-20.045656","-28.797516","-24.481646",""
"1407","-1.8919643","6.418761","9.899478","-2.8932405","0.9906553","-1.2797556","","","",""
"1409","-2.2557273","6.1377463","10.0931225","-2.8825881","1.1163563","-1.2648419","","","",""
"1412","-2.61949","5.8614955","10.206476","-2.85063","1.2207521","-1.2360798","","","",""
"1414","-2.9784665","5.6281104","10.343444","-2.794171","1.3049079","-1.2051871","","","",""
"1415","","","","","","","-18.960085","-29.256367","-24.0062",""
"1417","-3.3182974","5.404252","10.480412","-2.7142763","1.3677585","-1.1636418","","","",""
"1419","-3.5959058","5.123237","10.589041","-2.6056194","1.41463","-1.1135745","","","",""
"1422","-3.8878734","4.923194","10.607933","-2.4756575","1.4359354","-1.0549849","","","",""
"1424","-4.1080456","4.8279347","10.626825","-2.3275857","1.4433922","-0.99426496","","","",""
"1425","","","","","","","-18.07604","-30.430622","-23.611816",""
"1427","-4.3090725","4.680283","10.645718","-2.1528826","1.4327396","-0.9303491","","","",""
"1429","-4.4239454","4.556447","10.470965","-1.9632655","1.4167607","-0.861107","","","",""
"1432","-4.4813824","4.4278474","10.390673","-1.7566044","1.385868","-0.7876038","","","",""
"1434","-4.5053134","4.2754326","10.21592","-1.5456822","1.3496491","-0.72049224","","","",""
"1435","","","","","","","-17.27059","-31.257805","-21.993876",""
"1437","-4.457451","4.2754326","10.026999","-1.3294337","1.3123648","-0.64698905","","","",""
"1439","-4.395229","4.227803","9.904201","-1.1067936","1.2793416","-0.57348585","","","",""
"1441","-4.3377934","4.2992477","9.710556","-0.88734937","1.25271","-0.49998268","","","",""
"1444","-4.1894164","4.4183216","9.356329","-0.6700356","1.2420574","-0.43606687","","","",""
"1445","","","","","","","-16.578342","-31.874348","-21.294628",""
"1446","-4.069758","4.523107","8.973763","-0.465505","1.2420574","-0.37854263","","","",""
"1449","-3.954886","4.6088405","8.515629","-0.27482283","1.25271","-0.31995314","","","",""
"1451","-3.8208685","4.65647","8.033879","-0.103315406","1.2857332","-0.2677552","","","",""
"1454","-3.6485603","4.570737","7.486008","0.047952015","1.3336699","-0.21768783","","","",""
"1455","","","","","","","-16.461006","-32.818623","-20.333643",""
"1456","-3.4858248","4.613603","7.004259","0.17365311","1.39439","-0.17614256","","","",""
"1459","-3.3996708","4.594552","6.498895","0.28230998","1.4636321","-0.13885833","","","",""
"1461","-3.2943718","4.5755","5.9840846","0.3717921","1.5531143","-0.096247785","","","",""
"1464","-3.169927","4.608841","5.4834433","0.43890372","1.6479226","-0.058963563","","","",""
"1465","","","","","","","-16.379921","-33.58641","-18.915495",""
"1466","-2.9832597","4.6850486","5.0678163","0.48897108","1.7437965","-0.023809865","","","",""
"1469","-2.8779607","4.746967","4.6380205","0.52945113","1.8449965","0.004952252","","","",""
"1471","-2.8396702","4.737441","4.430207","0.5656701","1.9536533","0.032649104","","","",""
"1474","-2.7822342","4.6374197","4.1751633","0.59017116","2.072963","0.058215432","","","",""
"1475","","","","","","","-15.803118","-34.94368","-17.385273",""
"1476","-2.7391572","4.4516644","3.830382","0.6125417","2.1997292","0.07525965","","","",""
"1479","-2.629072","4.2373314","3.4147553","0.6402385","2.3126473","0.093369134","","","",""
"1481","-2.6099267","4.1182575","3.0321898","0.6594133","2.4191737","0.11254388","","","",""
"1484","-2.6099272","3.9801326","2.635455","0.68071854","2.5171778","0.13065335","","","",""
"1485","","","","","","","-16.617165","-35.28558","-15.546169",""
"1486","-2.643432","4.00871","2.337904","0.7052196","2.5970724","0.1466323","","","",""
"1489","-2.710441","3.8896363","2.0875833","0.7339817","2.6663146","0.16367653","","","",""
"1491","-2.6960824","3.794377","1.9647846","0.76274383","2.7238388","0.18072075","","","",""
"1494","-2.7870233","3.6371999","1.7428019","0.79683226","2.777102","0.2052218","","","",""
"1495","","","","","","","-17.443113","-35.427433","-14.486782",""
"1496","-2.858819","3.4657338","1.3932977","0.83198595","2.8143861","0.2286576","","","","57.62692"
"1499","-2.9306145","3.2847416","1.1713151","0.87033546","2.8367567","0.24889761","","","",""
"1501","-3.0215554","3.1228015","1.024901","0.91827226","2.8388872","0.27659446","","","",""
"1504","-3.1077101","2.956098","0.7462421","0.96940494","2.817582","0.30109552","","","",""
"1505","","","","","","","-17.668995","-36.166405","-13.330954",""
"1506","-3.131642","2.8370245","0.42035288","1.0247986","2.7845588","0.32453132","","","",""
"1509","-3.184292","2.675084","0.03306425","1.0929755","2.7270346","0.3479671","","","",""
"1511","-3.1029246","2.5750623","-0.7509589","1.167544","2.6354218","0.37566397","","","",""
"1514","-2.7822397","2.727477","-2.7960312","1.252765","2.4671102","0.40442607","","","",""
"1515","","","","","","","-18.43293","-36.14531","-11.520813",""
"1516","-3.1316433","2.9703877","-2.7771394","1.3475735","2.2050555","0.43212292","","","",""
"1519","-3.710792","2.8370254","-1.5113672","1.4477082","1.993068","0.46195033","","","",""
"1521","-4.079341","2.5798256","-0.88320404","1.5478431","1.8375394","0.4864514","","","",""
"1524","-4.486181","2.0892415","0.04250991","1.6415863","1.7086426","0.5141483","","","",""
"1525","","","","","","","-19.292364","-36.31957","-8.760714",""
"1526","-4.706353","1.3843246","0.8832093","1.7289379","1.6308783","0.54397565","","","",""
"1529","-4.672849","0.65082973","1.279944","1.793919","1.5829415","0.58125985","","","",""
"1531","-4.5005407","0.14595687","1.5160954","1.8525084","1.5328741","0.62813145","","","",""
"1534","-4.328233","0.0030683428","1.7097397","1.9228158","1.4710889","0.69098204","","","",""
"1535","","","","","","","-20.260874","-37.016827","-6.8770146",""
"1536","-4.1463523","0.16500893","1.8939377","2.0080369","1.3986509","0.7591589","","","",""
"1539","-4.1176343","0.4364974","2.0497975","2.1007147","1.3240825","0.82413995","","","",""
"1541","-4.08413","0.77943027","2.4040248","2.2125673","1.2537751","0.8933821","","","",""
"1544","-4.0984893","1.1938074","2.7062988","2.331877","1.1941203","0.95303684","","","",""
"1545","","","","","","","-21.258673","-36.0556","-5.393785",""
"1546","-4.1032767","1.5510292","2.9566195","2.4469254","1.1323351","1.0031042","","","",""
"1549","-4.112849","1.8701472","3.348631","2.5619738","1.0705497","1.0393231","","","",""
"1551","-4.108063","2.0654285","3.7170272","2.671696","1.0140908","1.0638242","","","",""
"1553","-4.0697727","2.236895","4.0004086","2.7643738","0.96082765","1.0776726","","","",""
"1554","","","","","","","","","",""
"1555","","","","","","","-22.420067","-35.45857","-3.4021294",""
"1556","-4.055414","2.4893317","4.543557","2.846399","0.9288697","1.0925863","","","",""
"1558","-4.036269","2.7274795","5.143382","2.9113803","0.92780447","1.1075","","","",""
"1561","-4.0123377","2.9275236","5.6912537","2.9571867","0.966154","1.1234789","","","",""
"1563","-3.9740472","3.1561453","6.206064","2.9838183","1.0385919","1.1458495","","","",""
"1565","","","","","","","-24.07914","-35.01158","-1.1710348",""
"1566","-3.9931927","3.3323748","6.5980754","2.9902098","1.1312698","1.1703506","","","",""
"1568","-4.0123386","3.575286","6.957026","2.9784918","1.2559056","1.1969821","","","",""
"1571","-4.0171256","3.8753521","7.2781916","2.9486644","1.3997161","1.2278749","","","",""
"1573","-4.088921","4.284966","7.7363253","2.8964665","1.5616362","1.2555717","","","",""
"1575","","","","","","","-26.057354","-34.547565","1.4161792",""
"1576","-4.251657","4.699343","8.1661215","2.8304203","1.7480574","1.2822033","","","",""
"1578","-4.352171","5.2232685","8.4872875","2.752656","1.9493921","1.3130959","","","",""
"1581","-4.41918","5.7805343","8.652594","2.6578476","2.1528575","1.3397275","","","",""
"1583","-4.476616","6.29017","8.775393","2.550256","2.3414092","1.3727508","","","",""
"1585","","","","","","","-27.548702","-34.470024","3.1811395",""
"1586","-4.5579844","6.861725","8.884023","2.4415991","2.5139818","1.4079044","","","",""
"1588","-4.677644","7.561879","8.978482","2.3276157","2.6588576","1.4473191","","","",""
"1591","-4.869098","8.466841","8.935975","2.215763","2.7739062","1.4846034","","","",""
"1593","-5.03662","9.22415","8.921806","2.1007147","2.8495398","1.5208224","","","",""
"1594","","","","","","","","","",""
"1595","","","","","","","-28.77015","-33.296413","4.0705304",""
"1596","-5.2137156","9.9957485","8.813175","1.9899273","2.8772366","1.5581065","","","",""
"1598","-5.3142295","10.824503","8.6431465","1.8855315","2.8495398","1.592195","","","",""
"1601","-5.3573065","11.586576","8.562855","1.7843314","2.7632535","1.6188266","","","",""
"1603","-5.3764524","12.291492","8.458948","1.6841967","2.6173124","1.6348056","","","",""
"1605","","","","","","","-30.352798","-31.72334","4.6842704",""
"1606","-5.2041445","12.9821205","8.6100855","1.5819314","2.4106512","1.6390666","","","",""
"1608","-5.0892725","13.525099","9.039881","1.4764704","2.1613796","1.6305445","","","",""
"1611","-4.9791865","14.029972","9.842796","1.374205","1.8748236","1.612435","","","",""
"1613","-4.8930326","14.330038","10.792126","1.2740703","1.5818762","1.5985866","","","",""
"1615","","","","","","","-31.22799","-30.752079","5.2242074",""
"1616","-4.7494426","14.52532","12.034283","1.1771313","1.2697539","1.5836729","","","",""
"1618","-4.6106386","14.73489","13.687344","1.0897796","0.9501749","1.5666287","","","",""
"1621","-4.471835","14.830149","15.41125","1.0237333","0.64337903","1.555976","","","",""
"1623","-4.2085867","14.868252","17.32408","0.9747312","0.34617046","1.5442581","","","",""
"1625","","","","","","","-31.696585","-30.347927","5.1187997",""
"1626","-3.825679","14.7206","19.208567","0.9523607","0.05535351","1.5389318","","","",""
"1628","-3.2943945","14.463402","21.196964","0.957687","-0.2130929","1.5346708","","","",""
"1631","-2.7343922","14.001396","23.119238","0.98857963","-0.45597297","1.5378666","","","",""
"1633","-2.1743898","13.363159","24.947052","1.0482343","-0.6551773","1.547454","","","",""
"1634","","","","","","","","","",""
"1635","","","","","","","-32.568733","-29.373722","5.504127",""
"1636","-1.6048148","12.672531","26.595388","1.1302596","-0.80324894","1.5666287","","","",""
"1638","-1.0735304","11.92951","28.012299","1.2250681","-0.90551424","1.5985866","","","",""
"1641","-0.5518189","11.424637","29.05609","1.3283987","-0.96943","1.6380013","","","",""
"1643","0.003397122","10.986446","29.764544","1.4391861","-0.9981922","1.6806118","","","",""
"1645","","","","","","","-33.41403","-28.796669","7.294273",""
"1646","0.54904056","10.667328","30.241568","1.547843","-1.0035186","1.7328098","","","","128.17723"
"1648","1.1856245","10.414892","30.416319","1.6586304","-0.99712694","1.7828772","","","",""
"1651","1.9705852","10.224375","30.317135","1.7640915","-0.9822132","1.8382709","","","",""
"1653","2.8321276","9.967175","30.066814","1.8610305","-0.9619732","1.8894036","","","",""
"1655","","","","","","","-33.737576","-28.257832","9.006256",""
"1656","3.8133287","9.629004","29.674803","1.9515778","-0.9438637","1.9330794","","","",""
"1658","4.914188","9.247969","29.131655","2.0272114","-0.9342764","1.9650372","","","",""
"1661","6.058125","8.990768","28.654629","2.093258","-0.9193627","1.9735594","","","",""
"1663","7.0824037","8.709755","28.28623","2.1497169","-0.89486164","1.968233","","","",""
"1665","8.0301","8.452557","27.818651","2.198719","-0.8522511","1.9394709","-33.89144","-27.348911","9.900593",""
"1668","8.72412","8.195356","27.284948","2.2381337","-0.79259634","1.8989909","","","",""
"1670","9.154891","7.919105","26.500925","2.267961","-0.71909314","1.8531846","","","",""
"1673","9.54737","7.5618834","25.513813","2.28394","-0.63067627","1.7956604","","","",""
"1674","","","","","","","","","",""
"1675","9.74361","7.147507","24.361393","2.2775486","-0.5454552","1.7423972","-33.553715","-26.29583","10.864712",""
"1678","9.90156","6.785523","23.06256","2.2562432","-0.46023414","1.689134","","","",""
"1680","9.949423","6.3044643","21.688158","2.2051105","-0.3771436","1.644393","","","",""
"1683","10.03079","5.961532","20.313755","2.1284115","-0.30257514","1.6017824","","","",""
"1685","9.982927","5.6519403","19.02909","2.025081","-0.23333302","1.5623677","-33.06457","-24.890345","11.938845",""
"1688","9.877626","5.2899556","17.881395","1.89938","-0.16409089","1.5282792","","","",""
"1690","9.801044","4.9136825","16.809267","1.7545041","-0.09165298","1.4984518","","","",""
"1693","9.614377","4.5850387","15.878828","1.5872577","-0.014954012","1.4718202","","","",""
"1695","9.422922","4.2897353","15.052297","1.4093587","0.061744954","1.4494497","-32.822067","-23.820786","12.454767",""
"1698","9.245828","3.9753807","14.329674","1.2197418","0.14803131","1.426014","","","",""
"1700","9.116595","3.680078","13.74874","1.0258638","0.23857869","1.4111003","","","",""
"1703","8.982577","3.365723","13.304776","0.83518165","0.33125663","1.3961865","","","",""
"1705","8.743259","3.0656567","13.007225","0.64876056","0.4313914","1.3834034","-32.424015","-23.13245","13.122993",""
"1708","8.671464","2.6608062","12.723843","0.4719268","0.5443093","1.3759465","","","",""
"1710","8.484796","2.4559991","12.501861","0.31107202","0.66361886","1.3716855","","","",""
"1713","8.38907","2.1511705","12.232648","0.15873933","0.7818631","1.3631634","","","",""
"1714","","","","","","","","","",""
"1715","8.389069","1.993993","11.944543","0.019189816","0.90543365","1.3546412","-31.868452","-22.08582","13.592016",""
"1718","8.360351","1.898734","11.599761","-0.10438076","1.0290041","1.3471844","","","",""
"1720","8.355564","1.8463417","11.339995","-0.21197237","1.1440526","1.3322707","","","",""
"1723","8.298127","1.7987124","11.028275","-0.30358502","1.259101","1.3120307","","","",""
"1725","8.2024","1.7653719","10.527633","-0.380284","1.3709537","1.2917907","-31.170933","-21.748058","12.386986",""
"1728","8.116246","1.7891866","9.960868","-0.43674296","1.4615011","1.2640939","","","",""
"1730","8.04445","1.7463202","9.460227","-0.48467985","1.533939","1.2289401","","","",""
"1733","7.963082","1.7129796","8.803726","-0.51983356","1.5882674","1.1905906","","","",""
"1735","7.819491","1.7272687","8.222794","-0.53474724","1.6085075","1.1383928","-30.954182","-21.017925","11.694988",""
"1738","7.685473","1.703454","7.7552133","-0.5358125","1.5935937","1.0808685","","","",""
"1740","7.522737","1.6224841","7.4671082","-0.5208988","1.5541791","1.0169528","","","",""
"1743","7.297778","1.42244","7.2404027","-0.48148406","1.4966547","0.9466453","","","",""
"1745","6.9818788","1.1700035","6.928683","-0.41756827","1.4306085","0.88486004","-30.490803","-19.951866","11.561203",""
"1748","6.6946974","0.90804124","6.565009","-0.33873874","1.3464526","0.82520527","","","",""
"1750","6.3309345","0.57939756","6.1399364","-0.24179977","1.2505789","0.7708768","","","",""
"1753","6.029394","0.28885746","5.6959715","-0.13314289","1.1451179","0.73146206","","","",""
"1754","","","","","","","","","",""
"1755","5.6225543","-0.058838025","5.091423","-0.026616529","1.0385915","0.6995042","-29.751215","-19.996529","10.987944",""
"1758","5.321014","-0.25411892","4.449091","0.08417088","0.9224778","0.6728726","","","",""
"1760","5.033833","-0.3636667","3.6886833","0.18643616","0.7978419","0.65369785","","","",""
"1763","4.708361","-0.45892566","2.9566135","0.28870147","0.664684","0.63878417","","","",""
"1765","4.4163933","-0.5446587","2.3331733","0.3813794","0.527265","0.6238705","-29.071955","-19.676443","10.710575",""
"1768","4.1004944","-0.62562877","1.6908408","0.4634047","0.3866502","0.6089568","","","",""
"1770","3.8707495","-0.7065989","1.0579547","0.5379731","0.2428396","0.60469574","","","",""
"1773","3.7558763","-0.8209097","0.4250684","0.6029542","0.099029034","0.6025652","","","",""
"1775","3.660149","-0.92569435","-0.28338635","0.6562174","-0.050107867","0.60682625","-28.489279","-18.815128","11.18626",""
"1777","3.6410034","-0.9733238","-0.81708896","0.70095843","-0.19391845","0.6110873","","","",""
"1780","3.597926","-0.944746","-1.2846689","0.7403732","-0.34092483","0.61854416","","","",""
"1782","3.6027122","-0.8923534","-1.6908497","0.7744616","-0.47727856","0.61854416","","","",""
"1785","3.6984384","-0.7780424","-2.0781384","0.80002797","-0.6061755","0.6121526","-28.231554","-17.730839","10.929132",""
"1787","3.7845926","-0.59228706","-2.3851354","0.81281114","-0.72761554","0.59830415","","","",""
"1790","3.8468146","-0.51131666","-2.6637945","0.8138764","-0.82348925","0.5791294","","","",""
"1792","3.976046","-0.4541611","-2.8479927","0.8074848","-0.9001882","0.5546284","","","",""
"1794","","","","","","","","","",""
"1795","4.0191226","-0.41129434","-3.0180218","0.79044056","-0.96303874","0.52480096","-27.53735","-17.607859","11.276869",""
"1796","","","","","","","","","","13.021714"
"1797","4.0669856","-0.45892376","-3.1124825","0.75954795","-0.9981925","0.4939083","","","",""
"1800","4.133994","-0.45892364","-3.2258353","0.7158721","-1.0024536","0.4587546","","","",""
"1802","4.186644","-0.45892352","-3.3864183","0.662609","-0.9928661","0.42147037","","","",""
"1805","4.2249336","-0.4922641","-3.480879","0.59336686","-0.964104","0.3820556","-26.6707","-17.32368","12.050503",""
"1807","4.2392926","-0.49702692","-3.6650774","0.51453733","-0.9172324","0.33837983","","","",""
"1810","4.248865","-0.4779749","-3.7500923","0.43464255","-0.867165","0.29150823","","","",""
"1812","4.2297196","-0.48750067","-3.8303835","0.35048676","-0.8075103","0.24250612","","","",""
"1815","4.133992","-0.51131535","-4.0145817","0.26739618","-0.7403987","0.19350399","-25.974535","-16.461172","12.046726",""
"1817","4.071769","-0.60181135","-4.165719","0.17791404","-0.6679608","0.14343661","","","",""
"1820","4.0047603","-0.5875224","-4.2554574","0.08097507","-0.59978396","0.09017344","","","",""
"1822","4.00476","-0.5494186","-4.3640866","-0.011702863","-0.53054184","0.03691026","","","",""
"1824","","","","","","","-25.484035","-15.580433","11.919607",""
"1825","3.9616823","-0.6256257","-4.4916086","-0.10438079","-0.466626","-0.019548707","","","",""
"1827","3.9425368","-0.6351514","-4.4868855","-0.2034503","-0.41016704","-0.078138195","","","",""
"1830","3.8372364","-0.6494402","-4.4207635","-0.2939977","-0.35370806","-0.13992348","","","",""
"1832","3.7415092","-0.64467704","-4.3640866","-0.38134933","-0.29937962","-0.20064351","","","",""
"1834","","","","","","","-25.10897","-15.440414","12.623461",""
"1835","3.7127907","-0.7208842","-4.269626","-0.45911357","-0.2535733","-0.2624288","","","",""
"1837","3.583559","-0.74946177","-4.179889","-0.5294209","-0.21841961","-0.31888774","","","",""
"1840","3.4447546","-0.7589876","-4.047644","-0.59227145","-0.19178805","-0.37108564","","","",""
"1842","3.3633862","-0.81614286","-3.877615","-0.6476652","-0.17687435","-0.42647937","","","",""
"1844","","","","","","","-24.36466","-14.954437","12.942236",""
"1845","3.267659","-0.89234996","-3.7642622","-0.69453675","-0.18007015","-0.47761202","","","",""
"1847","3.1575727","-0.9971348","-3.580064","-0.73288625","-0.18646173","-0.52341837","","","",""
"1850","3.1049225","-1.0447643","-3.381697","-0.7627136","-0.1992449","-0.56922466","","","",""
"1852","3.0235543","-1.1304973","-3.1880527","-0.78401893","-0.22161543","-0.61396575","","","",""
"1854","","","","","","","-24.064594","-14.040735","11.91872",""
"1855","3.0044084","-1.254334","-2.956624","-0.8010631","-0.24824703","-0.6587068","","","",""
"1857","2.9230404","-1.3781706","-2.6685193","-0.80638945","-0.28979233","-0.6970563","","","",""
"1860","2.8320994","-1.4543779","-2.3473535","-0.8053242","-0.32601127","-0.73327523","","","",""
"1862","2.7938082","-1.5782144","-2.1159248","-0.7989326","-0.37181762","-0.77269","","","",""
"1864","","","","","","","-23.923992","-14.22486","11.445921",""
"1865","2.7698758","-1.706814","-1.8844963","-0.784019","-0.42188498","-0.80890894","","","",""
"1867","2.7028668","-1.7782582","-1.653068","-0.76058316","-0.47621346","-0.8419321","","","",""
"1870","2.6310713","-1.8258876","-1.3696861","-0.73821265","-0.5369335","-0.8749553","","","",""
"1872","2.5592756","-1.883043","-1.1713189","-0.70945054","-0.60724086","-0.8994564","","","",""
"1874","","","","","","","-23.886055","-13.873648","12.0354",""
"1875","2.4539757","-1.9497242","-0.869045","-0.6689705","-0.67648304","-0.9250227","","","",""
"1877","2.367821","-1.935435","-0.5762171","-0.6284905","-0.7446599","-0.94739324","","","",""
"1880","2.2577348","-2.030694","-0.3022814","-0.5837494","-0.8117715","-0.9633722","","","",""
"1882","2.0375624","-2.1545305","-0.05196085","-0.5368778","-0.88314414","-0.97509","","","",""
"1884","","","","","","","-23.707521","-13.70656","12.152081",""
"1885","1.941835","-2.125953","0.14640638","-0.48681042","-0.9534516","-0.98041636","","","",""
"1887","1.8556806","-2.2450268","0.38255787","-0.4378083","-1.0226936","-0.97722054","","","",""
"1889","1.716876","-2.3402858","0.61870927","-0.3909367","-1.0993927","-0.9676332","","","",""
"1892","1.6163623","-2.4164927","0.8501377","-0.33980405","-1.1718307","-0.95485","","","",""
"1894","1.5206351","-2.473648","1.1146276","-0.2939977","-1.2463992","-0.93567526","-23.013317","-13.583579","12.499817",""
"1897","1.4488395","-2.545092","1.4310706","-0.25138718","-1.314576","-0.9079784","","","",""
"1899","1.3722576","-2.6212993","1.7475135","-0.20558086","-1.3742307","-0.87495524","","","",""
"1902","1.4009755","-2.6975067","2.144248","-0.16510084","-1.4253634","-0.8366058","","","",""
"1904","1.5206338","-2.6308248","2.5268135","-0.1342082","-1.4701045","-0.79079944","-22.504826","-12.8969965","12.843189",""
"1907","1.6450784","-2.5641434","2.932994","-0.10544608","-1.5073887","-0.7428626","","","",""
"1909","1.8748227","-2.3355215","3.4619734","-0.083075546","-1.532955","-0.6981215","","","",""
"1912","2.1237125","-2.078322","4.057075","-0.05963975","-1.5425425","-0.6523152","","","",""
"1914","2.3343117","-1.7068113","4.5529933","-0.038334478","-1.5404118","-0.6160962","-22.54216","-11.983934","13.103455",""
"1917","2.5784152","-1.3591155","4.963897","-0.025551317","-1.5233676","-0.58626884","","","",""
"1919","2.8799546","-0.992368","5.3748","-0.015963947","-1.5105845","-0.5649636","","","",""
"1922","3.1958532","-0.67324996","5.766812","-0.012768158","-1.4935403","-0.5468541","","","",""
"1924","3.4734612","-0.43033922","6.158823","-0.017029213","-1.4818224","-0.538332","-22.28944","-11.642117","13.352446",""
"1927","3.7414963","-0.14456186","6.588619","-0.02235553","-1.4615824","-0.53087515","","","",""
"1929","3.9281635","0.21265987","7.1270447","-0.027681848","-1.4434729","-0.5276793","","","",""
"1932","4.066967","0.62703705","7.7363157","-0.029812377","-1.4242982","-0.5340709","","","",""
"1934","4.27278","0.9652069","8.350309","-0.028747113","-1.3944708","-0.5404625","-21.905247","-11.49326","13.59247",""
"1937","4.3685064","1.4176875","8.902904","-0.01809448","-1.3635781","-0.542593","","","",""
"1939","4.478592","1.8749312","9.3327","-0.0010502646","-1.3380119","-0.5436583","","","",""
"1942","4.6365414","2.3178859","9.719988","0.019189743","-1.3177718","-0.5457888","","","",""
"1944","4.866286","2.8322852","10.036431","0.04049501","-1.3049886","-0.5457888","-21.730837","-10.592539","13.666859",""
"1945","","","","","","","","","","70.60602"
"1947","4.9237213","3.3847883","10.333982","0.060735017","-1.3017929","-0.5489846","","","",""
"1949","4.7705574","3.9134758","10.792116","0.08630134","-1.2868792","-0.5564414","","","",""
"1952","4.5455995","4.53266","11.207743","0.109737135","-1.2645086","-0.558572","","","",""
"1954","4.17705","5.2137628","11.4864025","0.13849925","-1.2389424","-0.5607025","-21.92845","-9.828888","12.882784",""
"1957","3.7797828","5.871051","11.684769","0.1661961","-1.2069845","-0.55750674","","","",""
"1959","3.4351654","6.475946","11.713108","0.1896319","-1.1707655","-0.5457888","","","",""
"1962","3.0139668","7.061789","11.65643","0.2098719","-1.1388077","-0.5276793","","","",""
"1964","2.6071267","7.7143145","11.524185","0.22265506","-1.1217635","-0.502113","-21.82714","-9.839477","13.021759",""
"1967","2.2146459","8.443047","11.316372","0.22691612","-1.1143066","-0.46695936","","","",""
"1969","1.8604556","9.15749","11.18885","0.22052453","-1.1249592","-0.43180564","","","",""
"1972","1.5301971","9.81954","11.075497","0.20028453","-1.1430687","-0.39345616","","","",""
"1974","1.353102","10.553036","10.947975","0.16726136","-1.1697003","-0.35830247","-21.503277","-9.325874","13.557676",""
"1977","1.2095112","11.448471","10.867683","0.12891188","-1.2187024","-0.3220835","","","",""
"1979","1.2142973","12.224833","10.773224","0.07458343","-1.2772919","-0.29438666","","","",""
"1982","1.3052374","12.9821415","10.707101","0.008537093","-1.3561214","-0.27414665","","","",""
"1984","1.4775456","13.777555","10.707101","-0.07561872","-1.4509299","-0.25710243","-21.307837","-8.6163645","13.947947",""
"1987","1.6977174","14.453896","10.692932","-0.17681877","-1.5574563","-0.24751505","","","",""
"1989","2.0519068","15.020687","10.910191","-0.29399773","-1.6788963","-0.24538454","","","",""
"1992","2.6166956","15.5636635","11.325818","-0.43035147","-1.8099236","-0.25603718","","","",""
"1994","3.1814842","15.992331","11.864243","-0.5762926","-1.9356247","-0.27627718","-21.305878","-7.8768377","13.596436",""
"1997","3.818068","16.325739","12.582143","-0.72969055","-2.0538692","-0.30077824","","","",""
"1999","4.6317472","16.459099","13.46535","-0.8926758","-2.169983","-0.34019297","","","",""
"2001","5.5076485","16.425758","14.33911","-1.0577917","-2.267987","-0.39026037","","","",""
"2004","6.359618","16.325739","15.3026085","-1.2229075","-2.3500123","-0.4445888","-20.921408","-7.5161476","12.438303",""
"2006","7.321674","16.101877","16.445583","-1.3880235","-2.4203198","-0.5074393","","","",""
"2009","8.288516","15.854204","17.744417","-1.5382257","-2.4789093","-0.57668144","","","",""
"2011","9.164416","15.520798","19.132988","-1.6724488","-2.5236504","-0.6512499","","","",""
"2014","10.006813","15.287413","20.497944","-1.7928236","-2.5492167","-0.7300794","-20.005241","-8.133247","12.333235",""
"2016","10.763056","15.025452","21.810947","-1.8982847","-2.5513473","-0.8067784","","","",""
"2019","11.476222","14.734911","23.095612","-1.9824405","-2.5364335","-0.88880366","","","",""
"2021","12.117592","14.463423","24.18663","-2.053813","-2.5119324","-0.97509","","","",""
"2024","12.672809","14.106201","25.301268","-2.1092067","-2.469322","-1.0624416","-19.102339","-8.025553","12.649706",""
"2026","13.175374","13.672773","26.576485","-2.1475563","-2.4022102","-1.1519237","","","",""
"2029","13.529564","13.1679","27.903656","-2.1688614","-2.3169892","-1.2403406","","","",""
"2031","13.797599","12.52014","29.235552","-2.1688614","-2.1923535","-1.3287574","","","",""
"2034","13.917257","11.867613","30.6194","-2.1454258","-2.020846","-1.4150438","-18.070734","-7.9019313","11.713663",""
"2036","13.749734","11.205563","31.691526","-2.0985541","-1.7992711","-1.4949386","","","",""
"2039","13.472127","10.58638","32.503887","-2.0250509","-1.536151","-1.5631155","","","",""
"2041","13.041354","9.905277","33.013973","-1.9334384","-1.2421383","-1.6185092","","","",""
"2044","12.428701","9.262278","33.193447","-1.8279773","-0.91936344","-1.6557933","-16.949718","-7.5888495","10.136881",""
"2046","11.772971","8.790747","32.85339","-1.7203857","-0.5720875","-1.6792291","","","",""
"2049","10.959291","8.352554","32.107155","-1.6117288","-0.21522422","-1.6834902","","","",""
"2051","10.183904","8.066777","31.053915","-1.5062677","0.12459482","-1.6717724","","","",""
"2054","9.413301","7.7571855","29.688961","-1.4135897","0.44204333","-1.650467","-16.397804","-7.8094363","9.910772",""
"2056","8.623552","7.6238227","28.0359","-1.3241076","0.7392519","-1.6206397","","","",""
"2059","7.8625245","7.495224","26.28838","-1.2442129","1.0045024","-1.5801597","","","",""
"2061","7.1445713","7.428542","24.43695","-1.1792318","1.2282078","-1.5386144","","","",""
"2064","6.450551","7.37615","22.609137","-1.1249033","1.4071721","-1.4949386","-15.605934","-8.964264","9.702353",""
"2066","5.8474708","7.3856764","20.68214","-1.0822928","1.5424606","-1.4501975","","","",""
"2069","5.2539625","7.4285426","18.906282","-1.0439433","1.6351385","-1.4075869","","","",""
"2071","4.717891","7.4761724","17.19182","-1.0087897","1.6862711","-1.3681722","","","",""
"2074","4.215325","7.5142756","15.576543","-0.977897","1.697989","-1.3298227","-14.615307","-9.194799","8.33144",""
"2076","3.789339","7.571431","13.942374","-0.9448738","1.6692269","-1.2936038","","","",""
"2079","3.3633537","7.647639","12.431005","-0.91717696","1.6074415","-1.2648417","","","",""
"2081","2.9182231","7.738135","11.03771","-0.88841486","1.5147636","-1.2382101","","","",""
"2084","2.5161698","7.7714763","9.795553","-0.8639138","1.3890624","-1.2190353","-13.920829","-8.859984","7.2810206",""
"2086","2.071039","7.7952914","8.737594","-0.8362169","1.2452519","-1.1998606","","","",""
"2089","1.6163354","7.8143425","7.585174","-0.8085201","1.0854623","-1.1860121","","","",""
"2091","1.243","7.7714763","6.5649996","-0.78295374","0.90543294","-1.1700332","","","",""
"2094","0.8840234","7.709558","5.8329296","-0.7531264","0.71155494","-1.1529889","-13.158251","-8.356331","6.672134",""
"2096","0.5489788","7.585722","5.0394607","-0.7264948","0.5123506","-1.1423364","","","","13.137353"
"2099","0.20436138","7.442833","4.5057583","-0.7051895","0.30568954","-1.1295532","","","",""
"2101","-0.073247105","7.2380266","4.028732","-0.6892106","0.104354724","-1.1093131","","","",""
"2104","-0.2647014","7.0617967","3.754796","-0.6732316","-0.08100113","-1.0943995","-11.986043","-8.416834","5.263292",""
"2106","-0.48487374","6.928434","3.5422592","-0.66151375","-0.25357383","-1.0784205","","","",""
"2109","-0.59017366","6.8093615","3.4336298","-0.65725267","-0.41123283","-1.0592458","","","",""
"2111","-0.6380375","6.595028","3.3061078","-0.65512216","-0.54971707","-1.0390058","","","",""
"2113","-0.666756","6.433088","3.3013847","-0.6529916","-0.66476554","-1.0198311","","","",""
"2114","","","","","","","-10.738562","-9.0391865","4.183664",""
"2116","-0.67154276","6.266384","3.4950287","-0.65512216","-0.7574435","-1.0027868","","","",""
"2118","-0.7481246","6.118733","3.6319966","-0.6529916","-0.82775086","-0.9900037","","","",""
"2121","-0.7529112","6.0091853","3.8067489","-0.6508611","-0.8778183","-0.9825468","","","",""
"2123","-0.75769794","5.880585","3.9201016","-0.6444695","-0.9119067","-0.97189415","","","",""
"2124","","","","","","","-9.737121","-8.7331915","3.3955655",""
"2126","-0.81034815","5.704356","3.891763","-0.6380779","-0.92895097","-0.95698047","","","",""
"2128","-0.8247075","5.4995494","3.872871","-0.63168633","-0.9342773","-0.9495236","","","",""
"2131","-0.7959899","5.270928","3.9578855","-0.622099","-0.9246899","-0.9420668","","","",""
"2133","-0.77205825","5.0994616","4.061792","-0.6093158","-0.9055152","-0.9335447","","","",""
"2134","","","","","","","-8.937206","-9.1426","2.5264149",""
"2136","-0.7866099","4.961413","4.1562123","-0.59546787","-0.8788863","-0.92715275","","","",""
"2138","-0.8536196","4.8613906","4.1703815","-0.58268726","-0.8384076","-0.9196981","","","",""
"2141","-0.8679794","4.7232656","4.222335","-0.5667083","-0.78834015","-0.91863286","","","",""
"2143","-0.8536211","4.5708513","4.156212","-0.54433775","-0.7297507","-0.9186328","","","",""
"2144","","","","","","","-7.647384","-9.935542","0.6804004",""
"2146","-0.8919128","4.4708295","4.009798","-0.5262283","-0.670096","-0.9186328","","","",""
"2148","-0.94934976","4.3327045","3.8917222","-0.50385773","-0.6083107","-0.91650224","","","",""
"2151","-1.078582","4.18029","3.7736464","-0.48255247","-0.5433296","-0.915437","","","",""
"2153","-1.1982415","3.9707203","3.5611098","-0.46124718","-0.47302222","-0.9111759","","","",""
"2154","","","","","","","-6.5977893","-10.006079","0.21485138",""
"2156","-1.3370465","3.7516248","3.2352204","-0.4431377","-0.40804118","-0.9026538","","","",""
"2158","-1.4949967","3.6087365","2.9471154","-0.42183244","-0.3398643","-0.89306647","","","",""
"2161","-1.7103832","3.4515593","2.753471","-0.40159243","-0.26742643","-0.87921804","","","",""
"2163","-1.9114107","3.3801155","2.3803515","-0.38454822","-0.20883696","-0.86323905","","","",""
"2164","","","","","","","-6.0126643","-10.406094","-0.3138137",""
"2166","-2.055002","3.1895976","2.0969694","-0.3643082","-0.15557379","-0.8483254","","","",""
"2168","-2.1985931","3.0038428","1.8608177","-0.34619874","-0.10550641","-0.8248896","","","",""
"2171","-2.4139798","2.8942952","1.6104969","-0.32489344","-0.06396115","-0.80571485","","","",""
"2173","-0.34864902","3.521103","11.267838","-0.30252293","-0.027742198","-0.7801485","","","",""
"2174","","","","","","","-5.3893294","-10.243062","-1.6511557",""
"2175","-0.13326383","3.7020955","11.820432","","","","","","",""
"2176","-2.7633846","2.5989923","1.2090389","-0.28441343","0.008476751","-0.74819064","","","",""
"2178","0.019898996","3.8068805","12.061306","-0.26097766","0.042565174","-0.7162327","","","",""
"2180","0.17784804","3.864036","12.132152","","","","","","",""
"2181","-3.0505672","2.4418156","0.7745197","-0.23860712","0.068131484","-0.6821443","","","",""
"2183","0.24964285","3.887851","12.1557665","-0.21410607","0.08730622","-0.6427295","","","",""
"2184","","","","","","","-4.795072","-10.634239","-2.6436512",""
"2185","0.26878786","3.921192","12.136874","","","","","","",""
"2186","-3.3138177","2.251298","0.17941743","-0.18747447","0.102219895","-0.6054453","","","",""
"2188","0.23049664","3.925955","12.032968","-0.15977763","0.108611465","-0.5670958","","","",""
"2190","0.16827369","3.8545105","11.782647","","","","","","",""
"2191","-3.447837","2.3275063","-0.39206967","-0.13527657","0.11180724","-0.5308769","","","",""
"2193","0.13476884","3.7783039","11.57011","-0.106514454","0.10648092","-0.49252737","","","",""
"2194","","","","","","","-4.2841334","-11.208983","-3.3046288",""
"2195","0.03904146","3.806882","11.296174","","","","","","",""
"2196","-3.5579247","2.3322697","-0.75574344","-0.076687075","0.09369774","-0.45737368","","","",""
"2198","-0.07583125","3.749726","11.022238","-0.04792497","0.07771878","-0.42328525","","","",""
"2200","-0.16677228","3.6116009","10.719964","","","","","","",""
"2201","-3.6584399","2.2989297","-1.0910789","-0.018097593","0.059609286","-0.3955884","","","",""
"2203","-0.2960041","3.5592089","10.361014","0.00746873","0.04363032","-0.36469576","","","",""
"2204","","","","","","","-3.7424335","-10.701829","-3.26381",""
"2205","-0.4156632","3.525868","10.087078","","","","","","",""
"2206","-3.787673","2.2894046","-1.2563853","0.03623084","0.025520831","-0.33380312","","","",""
"2208","-0.6310493","3.430609","9.893434","0.06286243","0.0074113393","-0.30717152","","","",""
"2210","-0.7746402","3.3925056","9.676175","","","","","","",""
"2211","-3.8163927","2.2608273","-1.3036159","0.08629823","-0.009632888","-0.2773441","","","",""
"2213","-0.88472664","3.378217","9.482531","0.10973402","-0.019220272","-0.24751675","","","",""
"2214","","","","","","","-2.7036538","-11.308895","-4.312172",""
"2215","-1.0331037","3.297247","9.369177","","","","","","",""
"2216","-3.8116078","2.170332","-1.1524794","0.12997402","-0.022416074","-0.22195044","","","",""
"2217","-1.0953267","3.2448547","9.269994","","","","","","",""
"2218","-3.7828906","2.1703322","-1.095803","0.14275719","-0.016024504","-0.19105779","","","",""
"2220","-1.1431906","3.187699","9.21804","","","","","","",""
"2221","-3.7972505","2.122703","-0.9493894","0.15980141","-0.0021760892","-0.1612304","","","",""
"2222","-1.2389181","3.1162553","9.137749","","","","","","",""
"2223","-3.7733197","2.2370143","-0.84075975","0.17045404","0.01593338","-0.13566408","","","",""
"2224","","","","","","","8.60833","4.8890753","-41.492092",""
"2225","-1.2724228","3.054337","9.180255","0.18430246","0.039369162","-0.109032474","","","",""
"2227","-1.2580642","2.968604","9.156641","","","","","","",""
"2228","-3.4813542","2.1750965","-0.6565619","0.19282457","0.06813127","-0.090923","","","",""
"2230","-1.2724236","2.9352634","9.161363","0.20134667","0.09795864","-0.07174826","","","",""
"2232","-1.2245605","2.9257376","9.194425","","","","","","",""
"2233","-3.198961","2.3179855","-0.0803525","0.20986877","0.12778601","-0.055769306","","","",""
"2234","","","","","","","8.759747","5.2414827","-41.38208",""
"2235","-1.1910565","2.9733672","9.236932","0.22158667","0.1714618","-0.04298614","","","",""
"2237","-1.1001163","2.9495528","9.2841625","","","","","","",""
"2238","-2.9069955","2.4799268","0.74145454","0.2354351","0.22579022","-0.040855613","","","",""
"2240","-1.0426805","3.040049","9.345562","0.25674036","0.28970602","-0.03872508","","","",""
"2242","-1.0139629","3.0162342","9.288885","","","","","","",""
"2243","-2.7873387","2.627579","1.2184803","0.287633","0.36001343","-0.0323335","","","",""
"2244","","","","","","","8.183753","5.6503344","-41.317245",""
"2245","-1.0043906","3.078153","9.359731","0.32278672","0.42819026","-0.032333497","","","",""
"2246","","","","","","","","","","94.00321"
"2247","-0.9708866","3.1305456","9.378623","","","","","","",""
"2248","-2.8639214","2.7133129","1.4168473","0.36007094","0.49636713","-0.034464024","","","",""
"2250","-0.9373826","3.1781754","9.411682","0.16399856","-0.22879672","0.13410664","","","",""
"2252","-0.98046005","3.2400937","9.449468","0.15334593","-0.22027461","0.13730243","","","",""
"2253","-3.108027","2.6847358","1.3034942","0.44422674","0.6103503","-0.02807244","","","",""
"2254","","","","","","","8.410442","5.440892","-40.878014",""
"2255","-0.94216967","3.225805","9.449468","0.14482382","-0.20855673","0.1383677","","","",""
"2257","-0.927811","3.3067753","9.45419","0.13736697","-0.19044724","0.14369401","","","",""
"2258","-3.265978","2.627581","1.1051267","0.5166646","0.70196295","-0.020615593","","","",""
"2260","-0.91823876","3.3448792","9.45419","0.1245838","-0.17446831","0.14475928","","","",""
"2262","-0.94217086","3.3448794","9.444744","0.11499643","-0.1510325","0.14475928","","","",""
"2263","-3.5005107","2.5037448","1.053173","0.5741889","0.77013975","-0.0014408429","","","",""
"2264","","","","","","","8.231905","5.2738047","-40.994694",""
"2265","-0.92781234","3.3639314","9.463636","0.10753959","-0.13185777","0.14262876","","","",""
"2267","-0.9134536","3.3496428","9.435298","0.094756424","-0.10948725","0.14262876","","","",""
"2268","-3.68718","2.36562","1.0201113","0.61253834","0.8244682","0.035843384","","","",""
"2270","-0.9230267","3.3686948","9.392791","0.08729958","-0.093508296","0.14049824","","","",""
"2272","-0.86559093","3.3829834","9.336114","0.07771221","-0.07007251","0.13943297","","","",""
"2273","-3.9169266","2.2560728","1.147633","0.65088785","0.87879664","0.08378025","","","",""
"2274","","","","","","","8.023204","5.28909","-40.96343",""
"2275","-0.84165967","3.3972726","9.317223","0.06812483","-0.05409356","0.13836771","","","",""
"2277","-0.78901017","3.3972728","9.303053","0.062798515","-0.041310403","0.13836771","","","",""
"2278","-4.1418867","2.1274734","1.2751545","0.6817804","0.9352555","0.14556552","","","",""
"2280","-0.7746515","3.382984","9.298329","0.051080614","-0.026396718","0.13304138","","","",""
"2282","-0.8081564","3.3877475","9.227484","0.039362714","-0.013613562","0.12878034","","","",""
"2283","-4.2711196","2.127474","1.421568","0.7030857","0.9991714","0.22439502","","","",""
"2284","","","","","","","8.309135","5.451482","-41.01699",""
"2285","-0.755507","3.444903","9.184977","0.03510166","-0.0029609324","0.12664981","","","",""
"2287","-0.707644","3.4258513","9.17553","0.028710075","0.0034306427","0.11919296","","","",""
"2288","-4.2615485","2.1893933","1.794687","0.70734674","1.0598912","0.30322453","","","",""
"2290","-0.702858","3.4210887","9.1283","0.01592691","0.011952746","0.11173611","","","",""
"2292","-0.71721745","3.4925332","9.1283","0.0137963835","0.015148531","0.10960559","","","",""
"2293","-4.079669","2.3846748","1.9788849","0.71586883","1.099306","0.37779298","","","",""
"2294","","","","","","","8.368379","5.8233137","-41.509785",""
"2295","-0.6454227","3.5068219","9.133023","0.008470064","0.018344317","0.10427927","","","",""
"2297","-0.6119186","3.4782448","9.118854","0.0010132194","0.017279048","0.097887695","","","",""
"2298","-3.9743707","2.641875","2.5362024","0.7616752","1.1014365","0.45236146","","","",""
"2300","-0.5736282","3.5306373","9.090516","-0.0021825721","0.013017987","0.088300325","","","",""
"2302","-0.5257652","3.5592148","9.066901","-0.0064436276","0.00982219","0.08190874","","","",""
"2303","-3.830782","2.92289","2.9612746","0.8373089","1.0843923","0.515212","","","",""
"2304","","","","","","","8.416531","5.446784","-41.187233",""
"2305","-0.46354306","3.6211338","9.048008","-0.005378365","0.010887448","0.07338663","","","",""
"2307","-0.4443981","3.6211338","9.090515","-0.0064436295","0.009822178","0.06379926","","","",""
"2308","-3.5675344","3.1658013","3.693344","0.947031","1.0076933","0.5684752","","","",""
"2310","-0.4683302","3.6687634","8.991332","-0.0064436304","0.0023653284","0.05314663","","","",""
"2312","-0.4970487","3.6211343","9.048008","-0.008574159","-0.0018957317","0.039298207","","","",""
"2313","-3.179842","3.2991643","4.7560253","1.0855154","0.9171459","0.6046941","","","",""
"2314","-0.49226278","3.6544747","9.01967","-0.013900477","-0.0061567915","0.026515044","8.306091","5.448535","-40.86238",""
"2315","-2.9357388","3.3610833","5.483372","1.1590185","0.8830575","0.6217383","","","",""
"2317","-0.53055394","3.6163714","8.967716","-0.010704688","-0.015744168","0.01266662","","","",""
"2318","-2.705995","3.4230022","6.172935","1.2367828","0.87133956","0.63239104","","","",""
"2319","-0.5449134","3.6211348","9.005501","-0.011769952","-0.021070492","-0.002247068","","","",""
"2320","-2.418815","3.4992096","6.857774","1.3209386","0.8702743","0.64304364","","","",""
"2322","-0.587991","3.6497126","8.996054","-0.01390048","-0.023201024","-0.011834439","","","",""
"2323","-2.2752252","3.5801802","7.523721","1.4029639","0.8883838","0.65476155","","","",""
"2324","-0.6502139","3.5735054","8.991332","-0.018161535","-0.029592609","-0.020356547","8.303048","5.44559","-40.70777",""
"2325","-2.145995","3.737358","8.170776","1.4849892","0.9203417","0.66115314","","","",""
"2327","-0.65021425","3.5163503","8.944101","-0.018161537","-0.0359842","-0.026748125","","","",""
"2328","-1.9880463","3.8326173","8.666694","1.5659492","0.98106164","0.6718058","","","",""
"2329","-0.6837191","3.525876","8.967716","-0.01603101","-0.04663684","-0.029943917","","","",""
"2330","-1.8683883","4.0612397","9.09649","1.6437135","1.0439122","0.6867195","","","",""
"2332","-0.7603011","3.463958","9.000777","-0.019226803","-0.05409369","-0.029943917","","","",""
"2334","-0.7746606","3.4306176","9.024391","-0.022422593","-0.06048528","-0.036335494","8.360332","5.077894","-40.849052",""
"2335","-1.691295","4.585165","9.715207","1.7758061","1.1962447","0.7122858","","","",""
"2337","-0.76030195","3.4068027","9.076345","-0.021357331","-0.06794213","-0.03527023","","","",""
"2339","-0.81773853","3.3734624","9.066899","-0.020292068","-0.070072666","-0.03207444","","","",""
"2340","-1.7295874","5.3281865","10.366984","1.8759409","1.3741437","0.7431784","","","",""
"2342","-0.8033799","3.421092","9.095238","-0.019226806","-0.07539899","-0.031009175","","","",""
"2344","-0.84645736","3.3591733","9.099959","-0.018161543","-0.07752952","-0.029943911","8.259026","5.088483","-40.98803",""
"2345","-1.8109571","6.1045485","11.028209","1.9537052","1.5829355","0.7964416","","","",""
"2347","-0.8703896","3.3686996","9.161359","-0.016031018","-0.08072531","-0.02994391","","","",""
"2349","-0.85124457","3.3925147","9.109406","-0.012835227","-0.084986374","-0.02994391","","","",""
"2350","-2.064635","6.971407","11.566634","2.005903","1.8204892","0.8699448","","","",""
"2352","-0.8368859","3.3353596","9.090514","-0.005378383","-0.0903127","-0.026748117","","","",""
"2354","-0.8512454","3.2924929","9.109406","-0.0021825936","-0.09350849","-0.025682854","8.249894","5.079645","-40.5242",""
"2355","-2.591135","8.4241085","11.604418","2.0208166","2.069761","0.9583617","","","",""
"2357","-0.8656049","3.3115451","9.043283","0.0010131961","-0.09670429","-0.026748115","","","",""
"2359","-0.875178","3.3305967","9.071622","0.007404776","-0.10096535","-0.025682852","","","",""
"2360","-3.337807","10.205454","10.862902","1.9835325","2.280683","1.0595616","","","",""
"2362","-0.8703921","3.3448858","9.147189","0.005274248","-0.09883483","-0.021421798","","","",""
"2364","-0.88475156","3.363938","9.128297","0.008470037","-0.097769566","-0.01929127","8.458595","5.0643597","-40.555466",""
"2365","-4.108411","12.0487175","9.389316","1.8716799","2.3467295","1.157566","","","",""
"2367","-0.9182563","3.3829896","9.0432825","0.007404773","-0.09244326","-0.018226005","","","",""
"2369","-0.8847524","3.3401234","9.137744","0.0020784547","-0.08818221","-0.015030213","","","",""
"2370","-4.2184987","13.401398","7.6417937","1.6586272","2.1762874","1.2523744","","","",""
"2372","-0.8273165","3.406805","9.170805","-0.001117337","-0.086051695","-0.015030213","","","",""
"2374","-0.79859877","3.3734646","9.095237","-0.0064436556","-0.08179064","-0.008638631","8.408484","4.7013655","-40.526505",""
"2375","-3.395248","14.03487","6.645234","1.350766","1.7342027","1.3567703","","","",""
"2377","-0.79859924","3.363939","9.033837","-0.013900502","-0.076464325","-0.005442839","","","",""
"2379","-0.789027","3.3972795","9.104682","-0.019226821","-0.07326854","-0.0065081017","","","",""
"2380","-1.9066955","14.053925","7.400919","1.0045553","1.0556298","1.4547745","","","",""
"2382","-0.7124458","3.4401464","9.142466","-0.026683666","-0.07539908","-0.0043775737","","","",""
"2383","","","","","","","8.614142","4.683134","-40.403156",""
"2384","-0.6789418","3.3687022","9.137744","-0.028814195","-0.06900751","-0.004377573","7.857789","-14.689823","-12.67041",""
"2385","-0.26019335","14.330175","9.998586","0.70521617","0.26094326","1.5485177","","","",""
"2387","-0.6502241","3.3591762","9.170805","-0.03200998","-0.063681185","-0.0075733634","","","",""
"2389","-0.6597972","3.3639395","9.175527","-0.038401563","-0.058354873","-0.011834417","","","",""
"2390","1.8170801","15.016041","13.583365","0.49322876","-0.5380044","1.6198903","","","",""
"2392","-0.65979767","3.468725","9.142465","-0.04479315","-0.05515909","-0.01609547","","","",""
"2393","","","","","","","8.383323","5.62621","-40.884678",""
"2394","-0.61193454","3.4210951","9.184973","-0.04798894","-0.05409383","-0.020356525","7.9784455","-15.419317","-13.262192",""
"2395","4.712819","15.582832","17.876602","0.3781803","-1.2975374","1.6252166","","","",""
"2396","","","","","","","","","","20.844513"
"2397","-0.60714865","3.4687252","9.189695","-0.050119467","-0.054093838","-0.026748102","","","",""
"2399","-0.5975764","3.425859","9.222757","-0.052249994","-0.047702264","-0.028878631","","","",""
"2400","7.8047986","15.678093","22.623247","0.3781803","-1.9484134","1.537865","","","",""
"2402","-0.6071494","3.406807","9.246371","-0.051184732","-0.04450648","-0.033139683","","","",""
"2403","","","","","","","8.514793","5.4332495","-40.893646",""
"2404","-0.6597997","3.4210958","9.260542","-0.053315263","-0.041310694","-0.038466","8.895698","-16.772997","-13.170359",""
"2405","10.509083","15.192272","27.624937","0.49535927","-2.395824","1.3663576","","","",""
"2406","-0.63108194","3.4258595","9.274711","-0.052249998","-0.040245436","-0.043792315","","","",""
"2407","11.54772","14.811237","29.962835","0.5933635","-2.505546","1.2672881","","","",""
"2409","-0.6358688","3.435385","9.350279","-0.052249998","-0.038114913","-0.051249158","","","",""
"2410","12.418835","14.430201","32.04097","0.71160775","-2.544961","1.1650229","","","",""
"2411","-0.6933053","3.3925188","9.284157","-0.049054213","-0.030658074","-0.051249158","","","",""
"2412","13.0889225","13.987246","33.94435","0.84050465","-2.4885018","1.0616922","","","",""
"2413","","","","","","","8.718493","4.6754913","-40.418793",""
"2414","-0.6885195","3.4687264","9.279433","-0.05225","-0.029592814","-0.05444495","9.468647","-17.184797","-13.080584",""
"2415","13.615419","13.429981","35.432102","0.9704668","-2.352148","0.9711449","","","",""
"2416","-0.74595594","3.4687264","9.307771","-0.046923682","-0.023201242","-0.059771266","","","",""
"2417","13.99354","12.825087","36.60814","1.1004289","-2.1433566","0.8752712","","","",""
"2419","-0.7220246","3.4210968","9.269986","-0.043727893","-0.022135982","-0.06296706","","","",""
"2420","14.232856","12.286873","37.491344","1.2271953","-1.8706493","0.78898484","","","",""
"2421","-0.7124523","3.4687269","9.260541","-0.04053211","-0.014679145","-0.065097585","","","",""
"2422","14.290292","11.772474","38.11006","1.343309","-1.5329608","0.71548164","","","",""
"2423","","","","","","","8.0652685","4.9066677","-40.331657",""
"2424","-0.77467525","3.463964","9.203863","-0.04053211","-0.0082875695","-0.06616285","9.565227","-17.726025","-13.833641",""
"2425","14.280719","11.277128","38.459564","1.4530312","-1.1388133","0.6409132","","","",""
"2426","-0.78424835","3.459201","9.142464","-0.038401578","-0.010418103","-0.07148916","","","",""
"2427","14.017469","10.829409","38.31315","1.5510354","-0.71057725","0.5791279","","","",""
"2429","-0.7938216","3.4782534","9.071619","-0.036271054","-0.014679163","-0.072554424","","","",""
"2430","13.567551","10.286434","37.67554","1.6415828","-0.2514487","0.52479947","","","",""
"2431","-0.8464718","3.5354085","9.024388","-0.034140527","-0.021070749","-0.0704239","","","",""
"2432","12.950111","9.824427","36.68371","1.7214775","0.21300617","0.47899315","","","",""
"2433","","","","","","","8.061139","5.6403017","-40.37395",""
"2434","-0.86083114","3.5068312","9.000773","-0.034140527","-0.024266545","-0.07468495","10.174429","-18.314304","-14.201031",""
"2435","12.213013","9.243347","35.219566","1.7939155","0.6614821","0.4544921","","","",""
"2436","-0.85604525","3.5449352","8.863806","-0.032010004","-0.035984453","-0.07681548","","","",""
"2437","11.380187","8.700371","33.43426","1.8503745","1.0684127","0.44596997","","","",""
"2439","-0.8560456","3.5068314","8.868528","-0.032010004","-0.046637088","-0.07681548","","","",""
"2440","10.623944","8.076424","31.398636","1.8961807","1.4284717","0.4512963","","","",""
"2441","-0.82732797","3.5020685","8.868528","-0.028814217","-0.0551592","-0.07681548","","","",""
"2442","9.853342","7.5334477","29.325224","1.9323997","1.7427244","0.4747321","","","",""
"2443","","","","","","","8.144457","5.8238707","-40.705467",""
"2444","-0.84168744","3.4973059","8.854359","-0.027748954","-0.07326869","-0.07894601","10.824609","-18.548426","-14.133553",""
"2446","-0.8560468","3.5306468","8.797683","-0.027748955","-0.08605187","-0.08107653","","","",""
"2447","8.460512","6.780901","25.173681","1.9537051","2.2199626","0.5684753","","","",""
"2449","-0.8847654","3.497306","8.826021","-0.026683692","-0.09457398","-0.082141794","","","",""
"2451","-0.8177569","3.5592248","8.849635","-0.033075273","-0.106291875","-0.08001126","","","",""
"2452","7.3596506","6.166481","21.050476","1.9121597","2.4820175","0.71122056","","","",""
"2453","","","","","","","8.278972","5.633853","-40.869045",""
"2454","-0.7938256","3.5735137","8.906312","-0.03414054","-0.120140314","-0.08214179","12.091762","-18.837242","-13.696043",""
"2456","-0.7890396","3.573514","8.84019","-0.03414054","-0.12866242","-0.08533758","","","",""
"2457","6.6369104","5.814023","17.390125","1.8311998","2.5384765","0.86248803","","","",""
"2459","-0.7986127","3.6401954","8.887421","-0.039466858","-0.13398874","-0.090663895","","","",""
"2460","","","","","","","","","",""
"2461","-0.80339956","3.5735142","9.000772","-0.04585844","-0.14038034","-0.08746811","","","",""
"2462","6.2396426","5.685424","14.395721","1.7204123","2.4255586","1.0020375","","","",""
"2463","","","","","","","8.363376","5.08084","-41.003662",""
"2464","-0.74117744","3.5639887","9.010219","-0.050119493","-0.14677191","-0.08533758","12.858192","-19.279057","-12.864483",""
"2466","-0.68374157","3.5973296","9.04328","-0.053315286","-0.15529402","-0.08853337","","","",""
"2467","6.1056223","5.899758","11.722486","1.5968417","2.1656342","1.096846","","","",""
"2469","-0.72681904","3.5687518","9.076342","-0.057576343","-0.16168562","-0.09066389","","","",""
"2471","-0.7316059","3.6449592","9.09051","-0.06609845","-0.16381614","-0.08746811","","","",""
"2472","6.2157073","6.333187","9.786043","1.4572922","1.8066401","1.1330649","","","",""
"2473","","","","","","","8.333212","5.263215","-40.855717",""
"2474","-0.6502384","3.6640112","9.175524","-0.070359506","-0.16488142","-0.0874681","13.967839","-19.926174","-12.227766",""
"2476","-0.6215207","3.6735373","9.18497","-0.07249003","-0.16594669","-0.09066389","","","",""
"2477","6.402373","6.623728","8.39747","1.3241342","1.3986442","1.109629","","","",""
"2479","-0.592803","3.6163821","9.236923","-0.07568582","-0.16594669","-0.09172915","","","",""
"2481","-0.54972637","3.6306708","9.2558155","-0.07781635","-0.16488144","-0.09279442","","","",""
"2482","6.316217","6.580862","7.27339","1.2026942","0.9810609","1.0361259","","","",""
"2483","","","","","","","8.227776","6.0074377","-41.036983",""
"2484","-0.49229053","3.6687746","9.27943","-0.083142675","-0.16807723","-0.09279442","14.725414","-20.164991","-12.330532",""
"2486","-0.49229094","3.6640122","9.303046","-0.08420794","-0.16701198","-0.098120734","","","",""
"2487","6.1247616","6.4617887","6.753856","1.092972","0.58584815","0.94025224","","","",""
"2489","-0.4492142","3.6973526","9.350276","-0.083142675","-0.16807725","-0.099185996","","","",""
"2491","-0.43006927","3.69259","9.388061","-0.081012145","-0.17446883","-0.10344704","","","",""
"2492","5.923733","6.290323","6.5129814","0.9853804","0.2396375","0.842248","","","",""
"2493","","","","","","","7.920811","6.0362577","-41.29931",""
"2494","-0.3822062","3.7116425","9.392783","-0.081012145","-0.17766464","-0.10557757","15.325483","-20.76211","-12.234093",""
"2496","-0.3630612","3.7021163","9.454184","-0.083142675","-0.17766464","-0.11196915","","","",""
"2497","5.7370644","6.233168","6.5177035","0.8756583","0.0020836974","0.7389175","","","",""
"2498","-0.35348892","3.7306943","9.510859","-0.08207741","-0.18086042","-0.118360735","","","",""
"2499","5.6030455","6.1426725","6.5649343","0.81493825","-0.06396265","0.6888501","","","",""
"2500","","","","","","","","","",""
"2501","-0.33913028","3.7306945","9.49669","-0.07888163","-0.18512149","-0.12368705","","","",""
"2502","5.4785995","6.0474133","6.517703","0.74143505","-0.08313741","0.63878274","","","",""
"2503","-0.30083987","3.7306945","9.591149","-0.07888163","-0.18618675","-0.12368705","8.091303","5.4579287","-40.521896",""
"2504","5.330222","5.956918","6.30989","0.65408343","-0.074615315","0.59404165","16.338825","-20.656164","-12.2424755",""
"2506","-0.28648123","3.6973538","9.619488","-0.0767511","-0.1851215","-0.12581757","","","",""
"2507","5.2297077","5.8426075","6.135138","0.54542655","-0.04691847","0.54503953","","","",""
"2508","-0.26733625","3.7354577","9.657272","-0.074620575","-0.18299098","-0.12794809","","","",""
"2509","5.2105618","5.6568527","6.0170617","0.42398652","0.0063446946","0.4960374","","","",""
"2511","-0.26733667","3.764036","9.690333","-0.07142478","-0.17979519","-0.13114388","","","",""
"2512","5.0669703","5.4710975","5.941493","0.2908286","0.0905005","0.44810054","","","",""
"2513","-0.21468726","3.7164063","9.7659025","-0.06609847","-0.17659941","-0.13114388","8.053369","5.106716","-41.111374",""
"2514","4.999961","5.290106","5.7761865","0.1566054","0.19383106","0.39803314","17.173632","-20.717308","-12.367538",""
"2516","-0.16682419","3.6830657","9.827301","-0.061837416","-0.16594678","-0.13433968","","","",""
"2517","4.861156","5.113877","5.6061573","0.01492533","0.31207532","0.34690052","","","",""
"2518","-0.15725191","3.711644","9.883978","-0.057576362","-0.15635942","-0.13220915","","","",""
"2519","4.6792736","4.980514","5.4077897","-0.12781999","0.44523323","0.29576787","","","",""
"2521","-0.12853421","3.7259328","9.855639","-0.050119516","-0.14996783","-0.13540494","","","",""
"2522","4.4686737","4.851915","5.3322215","-0.2726958","0.5933048","0.24570046","","","",""
"2523","-0.13810733","3.7545106","9.846193","-0.03946688","-0.14144573","-0.13966598","7.7754817","5.689744","-41.71854",""
"2524","4.3107233","4.66616","5.1055155","-0.42289796","0.7488333","0.19350256","18.275509","-21.898006","-12.468246",""
"2526","-0.14289404","3.7687995","9.898147","-0.029879512","-0.13079311","-0.14179651","","","",""
"2527","4.080978","4.5089827","4.859918","-0.5773612","0.9001007","0.13810886","","","",""
"2528","-0.16682622","3.7306962","9.893423","-0.024553197","-0.12653206","-0.13860072","","","",""
"2529","3.8560185","4.361332","4.6804423","-0.7243676","1.0481722","0.08804148","","","",""
"2531","-0.13810858","3.744985","9.846192","-0.018161615","-0.12120575","-0.14179651","","","",""
"2532","3.6214867","4.127948","4.467906","-0.8660477","1.1866566","0.03797409","","","",""
"2533","-0.138109","3.778326","9.832024","-0.009639509","-0.11587944","-0.14392704","7.5637374","5.7020826","-41.53267",""
"2534","3.4204595","3.9183774","4.217585","-1.0055971","1.3102272","-0.011028029","19.418364","-22.724552","-12.134085",""
"2536","-0.12853672","3.7973778","9.84147","0.0042089163","-0.10735733","-0.14073125","","","",""
"2537","3.2242181","3.6754673","3.9200344","-1.134494","1.4220798","-0.055769097","","","",""
"2538","-0.12853713","3.802141","9.846192","0.012731023","-0.105226815","-0.14392704","","","",""
"2539","3.0423362","3.3658755","3.7074978","-1.2538035","1.5094314","-0.099444896","","","",""
"2540","","","","","","","","","",""
"2541","-0.14289649","3.821193","9.78007","0.022318395","-0.10096577","-0.14605756","","","",""
"2542","2.817377","3.151543","3.499684","-1.3624604","1.5658902","-0.1431207","","","",""
"2543","-0.1189652","3.8497708","9.728116","0.034036297","-0.098835245","-0.14818808","7.622107","4.5978117","-41.477047",""
"2544","2.635495","2.9086328","3.258809","-1.4508772","1.6010439","-0.17933966","20.592255","-22.25736","-12.496284",""
"2546","-0.17161544","3.86406","9.713947","0.04575419","-0.098835245","-0.14818808","","","","11.205207"
"2547","2.386604","2.6133301","3.1312873","-1.5254458","1.605305","-0.21555863","","","",""
"2548","-0.16204315","3.8974009","9.704502","0.056406826","-0.09883525","-0.15031862","","","",""
"2549","2.1281404","2.432338","3.0557187","-1.5755131","1.5882608","-0.245386","","","",""
"2551","-0.14768451","3.9021637","9.595872","0.06812473","-0.10203105","-0.14925335","","","",""
"2553","-0.08546242","3.8640604","9.558088","0.07877736","-0.10416159","-0.14818808","7.5888987","4.777239","-41.17449",""
"2554","1.6925809","1.7178954","1.9835901","-1.6085364","1.4732124","-0.28586602","","","",""
"2556","-0.08546284","3.8878753","9.543917","0.08943","-0.107357375","-0.14925335","","","",""
"2558","-0.09982222","3.9212165","9.558087","0.10114789","-0.111618444","-0.14712283","","","",""
"2559","1.2474492","1.3987781","2.0874965","-1.5147932","1.152568","-0.30397546","","","",""
"2561","-0.028027445","3.9307423","9.50141","0.11180052","-0.11694477","-0.14712283","","","",""
"2563","-0.023241505","3.9259794","9.40695","0.116061576","-0.12227109","-0.14818808","7.209431","5.1590195","-40.52248",""
"2564","1.3814651","1.0225055","2.035543","-1.3773742","0.79783523","-0.3348681","","","",""
"2566","0.038980603","3.8974023","9.345551","0.123518415","-0.12866268","-0.14925335","","","",""
"2568","0.06291193","3.9355059","9.307766","0.12884474","-0.1393153","-0.15244915","","","",""
"2569","1.4532586","0.89390635","2.4889536","-1.2165194","0.4015572","-0.38919654","","","",""
"2571","0.019834384","3.9831352","9.255813","0.13417105","-0.14996795","-0.1535144","","","",""
"2573","0.06291109","4.0260024","9.175521","0.13417105","-0.15635954","-0.15457965","6.952577","5.5508375","-40.813763",""
"2574","1.6734291","0.66528535","3.3202069","-1.0119888","0.05641178","-0.45524287","","","",""
"2576","0.058124304","4.0402913","9.166075","0.13204052","-0.15955533","-0.15777545","","","",""
"2578","0.08684206","4.0736322","9.142459","0.13097526","-0.16914271","-0.15990597","","","",""
"2579","2.0467627","0.3747456","4.0475526","-0.7595213","-0.21096939","-0.5298113","","","",""
"2580","","","","","","","","","",""
"2581","0.11555976","4.111736","9.090507","0.1267142","-0.17979535","-0.16416703","","","",""
"2583","0.12991837","4.0783954","9.071613","0.11712683","-0.19151326","-0.16629755","7.119214","5.9179735","-41.4768",""
"2584","2.6689863","0.08896918","4.302596","-0.48042226","-0.41869578","-0.6001187","","","",""
"2586","0.22085854","4.111736","9.1141205","0.10966998","-0.19683959","-0.17268914","","","",""
"2588","0.29265335","4.1165","9.076337","0.103278406","-0.20429642","-0.17588493","","","",""
"2589","2.9465928","-0.26825184","4.5529165","-0.18534426","-0.58381164","-0.6512513","","","",""
