"Timestamp"," Accel x"," Accel y"," Accel z"," Gyro x"," Gyro y"," Gyro z","Mag x","Mag y","Mag z","Light Intensity"
"-558","","","","","","","","","","3.062784"
"0","-0.29560608","3.6180575","8.418279","","","","","","",""
"2","-0.2812438","3.7561822","8.673324","","","","","","",""
"4","-0.20944548","3.7942846","8.753615","","","","","","",""
"7","-0.18551056","3.7514164","8.876415","","","","","","",""
"9","-0.20465282","3.765704","8.890585","","","","","","",""
"12","-0.24294037","3.84191","9.155075","","","","","","",""
"14","-0.21421915","3.8943012","9.480966","","","","","","",""
"17","-0.15677974","3.918115","9.490412","","","","","","",""
"19","-0.14720386","3.965743","9.655719","","","","","","",""
"22","-0.18549138","4.0038457","10.019392","","","","","","",""
"24","-0.15198374","3.965741","10.146915","","","","","","",""
"27","-0.1806986","3.8419023","10.170531","","","","","","",""
"29","-0.1806955","3.770457","10.099686","","","","","","",""
"32","-0.21898305","3.6799598","10.028841","","","","","","",""
"34","-0.3099205","3.6370914","9.986335","","","","","","",""
"37","-0.33384907","3.5751722","9.94855","","","","","","",""
"39","-0.31470045","3.441808","9.872983","","","","","","",""
"42","-0.35777438","3.432281","9.811584","","","","","","",""
"44","-0.38170296","3.3465464","9.887154","","","","","","",""
"47","-0.357768","3.3655972","9.882431","","","","","","",""
"49","-0.305115","3.3179662","9.915493","","","","","","",""
"52","-0.28118008","3.3036761","9.981617","","","","","","",""
"54","-0.24767247","3.294149","9.953279","","","","","","",""
"57","-0.23809661","3.260807","9.9532795","","","","","","",""
"59","-0.19980264","3.2608058","9.967449","","","","","","",""
"62","-0.14714956","3.2655675","9.868266","","","","","","",""
"64","-0.12800103","3.298907","9.81159","","","","","","",""
"67","-0.11363875","3.356061","9.759638","","","","","","",""
"69","-0.13278094","3.3322449","9.603779","","","","","","",""
"72","-0.16149594","3.3655844","9.556549","","","","","","",""
"74","-0.14713366","3.36082","9.466812","","","","","","",""
"77","-0.14234409","3.3989224","9.419582","","","","","","",""
"79","-0.15191364","3.417973","9.296783","","","","","","",""
"80","","","","","","","-23.358603","-12.485792","-38.154957",""
"82","-0.13276505","3.4036832","9.164539","","","","","","",""
"84","-0.099257395","3.4179707","9.112587","","","","","","",""
"87","-0.099254236","3.422732","8.985065","","","","","","",""
"89","-0.046601206","3.4751232","8.980343","","","","","","",""
"90","","","","","","","-23.44192","-12.66936","-37.82344",""
"92","-0.022666276","3.522752","8.94256","","","","","","",""
"94","-0.027449474","3.5513282","8.9095","","","","","","",""
"96","-0.022659913","3.5656157","8.848101","","","","","","",""
"99","-0.04658851","3.527511","8.928393","","","","","","",""
"100","","","","","","","-23.776003","-12.455221","-38.092426",""
"101","-0.08487606","3.5656133","8.866995","","","","","","",""
"104","-0.11837729","3.6275303","8.862271","-0.046311956","-0.2123783","-0.017735722","","","",""
"106","-0.108801454","3.622766","8.904779","-0.07294353","-0.19426876","-0.025192576","","","",""
"109","-0.104011886","3.5656095","8.8811655","-0.09957511","-0.18468136","-0.031584162","","","",""
"110","","","","","","","-23.875353","-11.705106","-38.582916",""
"111","-0.15187214","3.6894445","8.980349","-0.12727197","-0.17509393","-0.040106278","","","",""
"114","-0.12315096","3.7465994","9.008688","-0.15496881","-0.17083283","-0.04969366","","","",""
"116","-0.16622488","3.756124","9.032305","-0.17946987","-0.17083278","-0.059281036","","","",""
"117","","","","","","","","","",""
"119","-0.12793088","3.8037517","9.088982","-0.19970986","-0.16657169","-0.06673788","","","",""
"120","","","","","","","-24.341187","-11.509836","-37.444775",""
"121","-0.09442328","3.8132768","9.11732","-0.21675408","-0.15485375","-0.07952106","","","",""
"124","-0.1662153","3.8180382","9.07009","-0.23699407","-0.1463316","-0.09336949","","","",""
"126","-0.23322093","3.7989852","9.098429","-0.25190774","-0.14633155","-0.10189161","","","",""
"129","-0.20928608","3.7942214","9.145659","-0.2646909","-0.15059257","-0.11360951","","","",""
"130","","","","","","","-24.187597","-12.63059","-36.94096",""
"131","-0.18056475","3.7465904","9.074816","-0.27747405","-0.1452662","-0.12745795","","","",""
"134","-0.199707","3.6608555","8.999248","-0.28599617","-0.14739668","-0.13598005","","","",""
"136","-0.23320825","3.5894105","8.961464","-0.29664877","-0.15165769","-0.14450218","","","",""
"139","-0.21405968","3.5227277","8.970911","-0.3019751","-0.1559187","-0.15089376","","","",""
"140","","","","","","","-23.852148","-13.369478","-37.873226",""
"141","-0.2523473","3.4941487","8.833943","-0.3104972","-0.16870181","-0.15515481","","","",""
"144","-0.25234407","3.398888","8.720592","-0.32008454","-0.18787651","-0.1562201","","","",""
"146","-0.2284091","3.3417318","8.843391","-0.32860664","-0.20279016","-0.1562201","","","",""
"149","-0.19011518","3.3036265","8.848114","-0.33925927","-0.21131222","-0.15408958","","","",""
"150","","","","","","","-23.981663","-12.436989","-38.215767",""
"151","-0.14703482","3.2417068","8.692256","-0.34245506","-0.22729114","-0.14450221","","","",""
"154","-0.08002275","3.236943","8.739487","-0.34458557","-0.24220477","-0.1423717","","","",""
"156","-0.08480598","3.194075","8.800886","-0.3488466","-0.25711843","-0.13384959","","","",""
"157","","","","","","","","","",""
"159","-0.027366593","3.170259","8.748934","-0.3488466","-0.27096683","-0.12639275","","","",""
"160","","","","","","","-24.54548","-12.016352","-38.769375",""
"161","0.0013547093","3.1512058","8.829225","-0.3488466","-0.28055412","-0.11574012","","","",""
"164","0.010930583","3.2035968","8.857565","-0.34671608","-0.28694567","-0.10615276","","","",""
"166","-0.0034252703","3.2226477","8.800889","-0.34991187","-0.2901414","-0.09976118","","","",""
"169","0.07794589","3.2178833","8.881182","-0.34458554","-0.2954677","-0.088043295","","","",""
"170","","","","","","","-24.93989","-11.437466","-38.742474",""
"171","0.13059887","3.217882","8.947305","-0.33819395","-0.29759815","-0.079521194","","","",""
"174","0.11145666","3.2321694","9.003982","-0.3360634","-0.3018592","-0.0763254","","","",""
"176","0.10667348","3.255983","8.980367","-0.33712867","-0.30718544","-0.07312962","","","",""
"179","0.13539475","3.260745","9.079551","-0.32967183","-0.30931595","-0.06886857","","","",""
"180","","","","","","","-25.00022","-11.07272","-38.446583",""
"181","0.101893485","3.217877","9.20235","-0.32328025","-0.30825064","-0.06354226","","","",""
"184","0.1545465","3.2845569","9.174013","-0.31901914","-0.30079374","-0.062477008","","","",""
"186","0.20241317","3.2797928","9.202351","-0.31262758","-0.30079368","-0.060346484","","","",""
"189","0.111475796","3.227399","9.277921","-0.3083665","-0.2997284","-0.053954914","","","",""
"190","","","","","","","-24.814512","-11.63632","-38.44222",""
"191","0.07797453","3.2321608","9.3015375","-0.3051707","-0.30185887","-0.047563337","","","",""
"193","0.09712309","3.255974","9.259031","-0.2966486","-0.3061199","-0.040106494","","","",""
"196","0.030117452","3.2607362","9.277923","-0.29132226","-0.31357667","-0.033714924","","","",""
"197","","","","","","","","","",""
"198","-0.017742947","3.332179","9.320431","-0.27960438","-0.3178377","-0.02306229","","","",""
"200","","","","","","","-24.453304","-12.035779","-38.166565",""
"201","-0.012953371","3.2893112","9.301539","-0.26895174","-0.32955554","-0.0113444","","","",""
"203","-0.06081362","3.3035989","9.344047","-0.2551033","-0.33701235","-0.002822299","","","",""
"206","-0.032092378","3.3178866","9.37711","-0.24551593","-0.34446913","0.011026121","","","",""
"208","-0.02251646","3.3416998","9.419618","-0.22953697","-0.35512173","0.022744013","","","",""
"210","","","","","","","-24.35504","-12.0493145","-37.87298",""
"211","-0.027299657","3.422669","9.43851","-0.20823169","-0.36470905","0.029135587","","","",""
"213","0.05885783","3.39409","9.509356","-0.1901222","-0.37216586","0.036592424","","","",""
"216","0.049288332","3.4321923","9.56131","-0.17414324","-0.3753616","0.04085347","","","",""
"218","0.06843689","3.4702947","9.51408","-0.15709902","-0.37536156","0.04511452","","","",""
"220","","","","","","","-24.690214","-11.098594","-38.338867",""
"221","0.07322639","3.479819","9.46685","-0.136859","-0.373231","0.046179775","","","",""
"223","0.082802296","3.4893436","9.419621","-0.11874951","-0.3636436","0.046179768","","","",""
"226","0.06844643","3.43695","9.476298","-0.10170529","-0.35405615","0.047245026","","","",""
"228","0.049304217","3.456001","9.490467","-0.08785685","-0.345534","0.048310284","","","",""
"230","","","","","","","-25.087667","-10.522654","-38.157352",""
"231","0.049307436","3.4036071","9.386561","-0.07187789","-0.3327508","0.04724501","","","",""
"233","0.06366965","3.4559984","9.38184","-0.05802946","-0.31464127","0.04617974","","","",""
"236","0.10674998","3.4464712","9.391286","-0.046311554","-0.29866228","0.046179734","","","",""
"237","","","","","","","","","",""
"238","0.145044","3.432181","9.34878","-0.037789438","-0.2741612","0.044049203","","","",""
"240","","","","","","","-25.382732","-10.693883","-37.63996",""
"241","0.13068807","3.4369426","9.282658","-0.029267324","-0.24752955","0.037657615","","","",""
"243","0.154623","3.4131265","9.140968","-0.02713679","-0.21876739","0.036592342","","","",""
"246","0.17377162","3.3845475","9.05123","-0.026071517","-0.18574417","0.030200759","","","",""
"248","0.15462938","3.3226278","8.97094","-0.028202036","-0.16124307","0.022743907","","","",""
"250","","","","","","","-25.396593","-11.233359","-38.06816",""
"251","0.14505988","3.2797601","8.786742","-0.03139782","-0.13461143","0.021678636","","","",""
"253","0.18814018","3.2226033","8.687559","-0.038854655","-0.10584927","0.01848284","","","",""
"256","0.2072888","3.155921","8.611991","-0.049507283","-0.090935536","0.018482832","","","",""
"258","0.1594285","3.10829","8.479748","-0.060159907","-0.07495654","0.017417563","","","",""
"260","","","","","","","-25.549093","-10.849186","-38.375084",""
"261","0.19293612","3.0987625","8.460855","-0.06974728","-0.05578175","0.025939664","","","",""
"263","0.10199866","3.0463686","8.390011","-0.082530424","-0.040868014","0.034461763","","","",""
"266","0.1546517","3.089234","8.243598","-0.09744411","-0.029150076","0.037657548","","","",""
"268","0.082859635","3.08447","8.21526","-0.111292526","-0.030215293","0.04617965","","","",""
"270","","","","","","","-25.399637","-11.236305","-37.913555",""
"271","0.020640329","3.0558908","8.1491375","-0.12407568","-0.04193315","0.05150596","","","",""
"273","-0.008074537","3.1035197","8.144415","-0.13898937","-0.054716267","0.0589628","","","",""
"276","0.030219406","3.1273327","8.191647","-0.14644621","-0.0845436","0.06641964","","","",""
"277","","","","","","","","","",""
"278","0.09723148","3.1463833","8.342784","-0.1528378","-0.12182778","0.07281121","","","",""
"280","","","","","","","-25.414856","-11.251036","-37.140503",""
"281","0.07808933","3.165434","8.5128145","-0.15390304","-0.15058985","0.08559436","","","",""
"283","0.04458803","3.1892474","8.5458765","-0.1549683","-0.1708298","0.09944278","","","",""
"285","0.097240984","3.2273495","8.682845","-0.15070723","-0.18680872","0.11009541","","","",""
"288","0.082885176","3.2797408","8.744245","-0.14644618","-0.19213499","0.11648698","","","",""
"290","0.08767471","3.346421","8.739523","-0.13579354","-0.19320022","0.12713961","-25.470182","-10.143817","-37.35073",""
"293","0.087677896","3.3226047","8.758415","-0.13153248","-0.1921349","0.13566172","","","",""
"295","0.1307582","3.4464407","8.8434305","-0.12514088","-0.19533065","0.13992277","","","",""
"298","0.15947947","3.4369133","8.933168","-0.120879814","-0.1953306","0.1388575","","","",""
"300","0.20255986","3.4845417","8.9095545","-0.11555348","-0.1995916","0.14205328","-25.753067","-10.303262","-37.451782",""
"303","0.18820396","3.5131183","8.96623","-0.11342295","-0.20491788","0.13885748","","","",""
"305","0.16906172","3.4416723","9.051247","-0.11448821","-0.21450521","0.13566169","","","",""
"308","0.21214208","3.4083304","9.11737","-0.11661872","-0.21876623","0.13459642","","","",""
"310","0.23129061","3.455959","9.230721","-0.117683984","-0.22302723","0.13140061","-25.987806","-10.839236","-37.230278",""
"313","0.34137985","3.5083504","9.2874","-0.12301029","-0.22302718","0.12820482","","","",""
"315","0.37967387","3.5607414","9.292123","-0.12833661","-0.20917872","0.12713955","","","",""
"317","","","","","","","","","",""
"318","0.45625857","3.5845547","9.405478","-0.12940186","-0.18893866","0.12500902","","","",""
"320","0.49933895","3.636946","9.414924","-0.1368587","-0.16230704","0.11542164","-26.069166","-10.283279","-37.25027",""
"323","0.53763294","3.6226556","9.490493","-0.14644606","-0.12608802","0.110095315","","","",""
"325","0.53763604","3.603603","9.457433","-0.14964186","-0.08454271","0.10476899","","","",""
"328","0.53763926","3.5797868","9.405479","-0.15390289","-0.045127913","0.10157319","","","",""
"330","0.59986496","3.5654967","9.377142","-0.16135973","-3.8680038E-4","0.09624687","-26.069166","-10.283279","-37.25027",""
"333","0.6860224","3.5607326","9.377143","-0.1645555","0.044354312","0.09198581","","","",""
"335","0.6573075","3.5369165","9.235452","-0.16988184","0.08057332","0.08452896","","","","4.7584095"
"338","0.59508824","3.4940486","9.107931","-0.17627339","0.1146618","0.076006845","","","",""
"340","0.52329624","3.3844993","9.19767","-0.18373024","0.14661975","0.06748473","-26.061989","-11.0139675","-37.36259",""
"343","0.4802222","3.3892608","9.1693325","-0.19118707","0.18283875","0.06109314","","","",""
"345","0.44672105","3.4226003","9.070148","-0.19757865","0.21692723","0.050440498","","","",""
"348","0.38928798","3.317814","8.904843","-0.20503548","0.24142833","0.04404891","","","",""
"350","0.35100034","3.2701833","8.796215","-0.2103618","0.2584726","0.03659206","-25.904486","-10.655668","-37.5618",""
"353","0.25049028","3.279708","8.645078","-0.2156881","0.25527686","0.02913521","","","",""
"355","0.13562107","3.1796846","8.612018","-0.21994916","0.24568953","0.029135203","","","",""
"357","","","","","","","","","",""
"358","0.106906176","2.8891432","8.550619","-0.21888387","0.2446243","0.032330986","","","",""
"360","0.073405","2.779594","8.578958","-0.21462283","0.23929803","0.040853087","-25.719858","-10.482689","-37.754337",""
"363","0.054262787","2.6843338","8.465606","-0.21036175","0.22225386","0.05576677","","","",""
"365","0.068625","2.5652585","8.300301","-0.19544806","0.19242653","0.071745716","","","",""
"368","0.059055507","2.5509684","8.323916","-0.18266489","0.16046867","0.09198572","","","",""
"370","0.13564032","2.5509672","8.437269","-0.17201225","0.13277186","0.11435624","-25.630453","-10.293228","-38.395077",""
"373","0.16436148","2.4604697","8.583684","-0.15922907","0.113597155","0.13246572","","","",""
"375","0.17393738","2.39855","8.39004","-0.14857644","0.1018793","0.15803204","","","",""
"378","0.09735903","2.3652081","8.101936","-0.14005432","0.07311723","0.18466361","","","",""
"380","0.05907142","2.3175774","7.922462","-0.13898905","0.028376205","0.21022993","","","",""
"381","","","","","","","-25.487894","-9.737826","-39.219387",""
"383","-0.031865984","2.2794726","7.695757","-0.14538062","-0.023821663","0.2432531","","","",""
"385","-0.118017025","2.227079","7.502113","-0.15390272","-0.08028059","0.2720152","","","",""
"387","-0.1898091","2.379492","7.5540667","-0.16562061","-0.14952266","0.30716893","","","",""
"390","-0.12758335","2.5223794","7.5965753","-0.1805343","-0.20704685","0.3476489","","","",""
"391","","","","","","","-25.651485","-10.102017","-38.71096",""
"392","0.0016511977","2.7462366","7.6957593","-0.19864376","-0.25498366","0.3849331","","","",""
"395","0.12609941","2.903413","7.8752356","-0.21355745","-0.28161523","0.42008683","","","",""
"397","0.20268416","3.0415375","7.979143","-0.22847113","-0.28161517","0.44884893","","","",""
"400","0.36063686","3.2177653","8.087773","-0.24125428","-0.25817934","0.4701542","","","",""
"401","","","","","","","-25.65453","-10.104963","-38.556347",""
"402","0.43722162","3.255868","8.168065","-0.2572332","-0.23048244","0.4840026","","","",""
"405","0.5568836","3.3701775","8.15862","-0.2774732","-0.19639397","0.4925247","","","",""
"407","0.6717591","3.379702","8.205851","-0.29451743","-0.1591097","0.49039418","","","",""
"410","0.86800253","3.3987527","8.262527","-0.3179532","-0.12395594","0.4722847","","","",""
"411","","","","","","","-25.94155","-9.530773","-38.699688",""
"412","1.0115961","3.4416177","8.3947735","-0.3445848","-0.09199799","0.4435226","","","",""
"415","1.0833945","3.5321126","8.498681","-0.36695534","-0.06004004","0.41262993","","","",""
"417","1.2126291","3.5702152","8.607311","-0.3914564","-0.025951568","0.37428042","","","",""
"420","1.2652822","3.5559251","8.725387","-0.41702268","0.002810593","0.32953936","","","",""
"421","","","","","","","-26.313843","-9.879679","-38.159996",""
"422","1.2700716","3.6607087","8.805679","-0.43619743","0.031572755","0.2784067","","","",""
"425","1.2748611","3.7654927","8.86708","-0.45856795","0.056073856","0.23046982","","","",""
"427","1.3227279","3.8178837","8.9473715","-0.4692206","0.079509705","0.18253295","","","",""
"430","1.2605085","3.8893268","9.136293","-0.47241637","0.09868449","0.1345961","","","",""
"431","","","","","","","-26.024868","-9.714342","-38.36817",""
"432","1.222221","3.9988735","9.277986","-0.47774267","0.11892454","0.09092028","","","",""
"435","1.1982924","4.0893683","9.499969","-0.47241637","0.13703406","0.046179205","","","",""
"437","1.1552185","4.0369744","9.627491","-0.46069846","0.16153516","0.007829714","","","",""
"440","1.0738537","4.0798397","9.736122","-0.43939316","0.19029732","-0.031585045","","","",""
"441","","","","","","","-25.945677","-8.797139","-38.74198",""
"442","1.0164207","4.027446","9.797522","-0.41382682","0.22225527","-0.06354296","","","",""
"445","0.9637741","3.9702892","9.835306","-0.38293418","0.2542132","-0.09123981","","","",""
"447","0.83454597","3.8416884","9.740847","-0.34458467","0.30001962","-0.1178714","","","",""
"450","0.7579676","3.7226133","9.670002","-0.31049624","0.33517334","-0.14024195","","","",""
"451","","","","","","","-25.975842","-8.614765","-38.594032",""
"452","0.6957483","3.5559084","9.528311","-0.27534255","0.37245762","-0.16261248","","","",""
"455","0.60481083","3.3892038","9.334668","-0.23912358","0.40228504","-0.17752619","","","",""
"457","0.5808822","3.2129736","9.164639","-0.20610042","0.42465562","-0.19243988","","","",""
"460","0.6239625","3.0605574","8.876535","-0.17946881","0.43956935","-0.20415778","","","",""
"461","","","","","","","-26.056118","-8.795388","-38.417126",""
"462","0.6718292","2.9224305","8.460909","-0.15603301","0.44169992","-0.21481043","","","",""
"465","0.6574733","2.750963","8.031114","-0.13685825","0.43104732","-0.22333254","","","",""
"467","0.64311755","2.5985472","7.6249337","-0.12727088","0.42039475","-0.22972414","","","",""
"470","0.5904709","2.4556575","7.2470922","-0.12620561","0.4022853","-0.23505045","","","",""
"471","","","","","","","-25.106745","-9.591916","-38.82475",""
"472","0.7005601","2.3175304","6.803128","-0.12407507","0.37565377","-0.23611574","","","",""
"475","0.7149224","2.150826","6.557531","-0.1379235","0.33623907","-0.23824625","","","",""
"477","0.69578016","2.1698763","6.3308263","-0.15922876","0.29149804","-0.23824626","","","",""
"480","0.78672373","2.0460382","6.080506","-0.17840348","0.24356122","-0.23505048","","","",""
"481","","","","","","","-24.606024","-9.438918","-39.2188",""
"482","0.79151344","2.0222223","6.028553","-0.21142666","0.19242862","-0.23185469","","","",""
"485","0.8441664","1.9698285","5.9624314","-0.24338455","0.14555706","-0.22972418","","","","6.5935802"
"487","0.85374236","1.8983829","5.9199247","-0.27747294","0.10614236","-0.22546312","","","",""
"489","0.8681046","1.9317222","5.95771","-0.3168877","0.067792915","-0.22120209","","","",""
"491","","","","","","","-25.05359","-9.225974","-39.00832",""
"492","0.8824668","2.0079284","6.004941","-0.35417193","0.035835054","-0.2062884","","","",""
"494","0.8393929","2.0936604","6.1088486","-0.38932562","0.001746665","-0.1977663","","","",""
"497","0.825037","2.103185","6.302493","-0.41915298","-0.014232243","-0.19563578","","","",""
"499","0.8633311","2.179391","6.321386","-0.44791508","-0.023819571","-0.18285263","","","",""
"501","","","","","","","-25.39376","-9.017726","-38.968086",""
"502","0.9207703","2.2127304","6.368617","-0.4766772","-0.030211108","-0.17539579","","","",""
"504","0.887269","2.2555957","6.4064016","-0.50117826","-0.034472115","-0.1690042","","","",""
"507","0.96385396","2.3222756","6.5150323","-0.5235488","-0.038733125","-0.1636779","","","",""
"509","0.9830024","2.4175336","6.576432","-0.54485404","-0.041928872","-0.16154738","","","",""
"511","","","","","","","-25.313484","-8.837105","-39.144997",""
"512","1.0500146","2.5270803","6.543371","-0.5672246","-0.04938567","-0.16900423","","","",""
"514","1.0835221","2.6366267","6.6378326","-0.5821383","-0.051516153","-0.1817874","","","",""
"517","1.1361752","2.7366476","6.590603","-0.60344356","-0.05258137","-0.19350532","","","",""
"519","1.2366917","2.765224","6.5528197","-0.62048775","-0.055777118","-0.20735374","","","",""
"521","","","","","","","-25.502241","-8.27645","-38.994747",""
"522","1.3372082","2.7890377","6.7606335","-0.641793","-0.05258128","-0.2350506","","","",""
"524","1.3898612","3.0128956","7.0676317","-0.6705551","-0.029145444","-0.2670085","","","",""
"527","1.4377278","3.2081752","7.4454746","-0.71316564","0.02198725","-0.30961904","","","",""
"529","1.4616628","3.1748328","7.478536","-0.7653636","0.102947325","-0.36501276","","","",""
"531","","","","","","","-25.186146","-8.2964325","-39.196255",""
"532","1.4329479","2.8985808","7.2707233","-0.81116986","0.18071161","-0.4161454","","","",""
"534","1.3515831","2.5794613","7.0062346","-0.8367362","0.23077904","-0.44916856","","","",""
"537","1.3468","2.4746752","6.925944","-0.8452583","0.25421485","-0.47153914","","","",""
"539","1.4185983","2.4746737","6.9495597","-0.84419304","0.2606065","-0.4875181","","","",""
"541","","","","","","","-24.839884","-8.498788","-39.545708",""
"542","1.4999695","2.4508576","6.84093","-0.8420625","0.26273707","-0.5088234","","","",""
"544","1.504759","2.355597","6.817316","-0.8473888","0.26699817","-0.531194","","","",""
"547","1.4186078","2.3174925","6.755917","-0.860172","0.270194","-0.55462974","","","",""
"549","1.4425429","2.1650767","6.604781","-0.8761509","0.2723246","-0.5823266","","","",""
"551","","","","","","","-24.50993","-7.979293","-39.319016",""
"552","1.5191276","2.0555272","6.354461","-0.89212984","0.27232462","-0.6057624","","","",""
"554","1.4234039","1.9650302","6.1986017","-0.90597826","0.2595415","-0.6291982","","","",""
"557","1.2558849","1.8221403","6.151372","-0.9294141","0.24143207","-0.65476453","","","",""
"559","1.1649475","1.6268579","6.13248","-0.95071936","0.22758369","-0.6739393","","","",""
"561","","","","","","","-24.352428","-7.6209936","-39.518223",""
"562","1.0835828","1.3934718","6.132481","-0.9752203","0.22545321","-0.69737506","","","",""
"564","0.99743164","1.2601078","6.0710826","-0.99865615","0.2414322","-0.7261372","","","",""
"567","0.81555367","1.107692","6.052191","-1.0178308","0.25634593","-0.75383407","","","",""
"569","0.67196643","0.9505133","6.099422","-1.0476583","0.2733902","-0.7772699","","","",""
"571","","","","","","","-24.328352","-7.8092585","-39.356945",""
"572","0.5283791","0.8314382","6.1702676","-1.0742899","0.2978913","-0.7921836","","","",""
"574","0.4565871","0.7599926","6.378082","-1.1019868","0.32771873","-0.7996404","","","",""
"577","0.40872684","0.69330996","6.293068","-1.1286182","0.3618072","-0.80283624","","","",""
"579","0.35608014","0.59328675","6.146654","-1.1605762","0.39376515","-0.79857516","","","",""
"581","","","","","","","-24.12878","-7.833382","-38.92438",""
"582","0.3800151","0.49802637","6.056918","-1.2031868","0.4321147","-0.7911183","","","",""
"584","0.32258216","0.53136575","5.9341197","-1.2468625","0.46620318","-0.78046566","","","",""
"587","0.27950808","0.56470513","5.697969","-1.2916036","0.49709585","-0.76129097","","","",""
"589","0.2460069","0.6075705","5.5610013","-1.3384751","0.52692324","-0.7431815","","","",""
"591","","","","","","","-24.087524","-7.267391","-39.88767",""
"592","0.29387358","0.66472465","5.3531885","-1.3864119","0.56101173","-0.72720253","","","",""
"594","0.4039627","0.7647454","5.1264844","-1.4343488","0.5876434","-0.7112236","","","",""
"596","0.5188384","0.6980628","4.880887","-1.4844162","0.60149187","-0.69844043","","","",""
"597","","","","","","","","","",""
"599","0.65285933","0.645669","4.559722","-1.5366141","0.6057529","-0.6941794","","","",""
"601","0.73901665","0.621853","4.4322004","-1.5877467","0.59936136","-0.68991834","-23.631914","-6.7349176","-40.758877",""
"604","0.76295173","0.6170889","4.403863","-1.6367489","0.58657825","-0.68778783","","","",""
"606","0.75816846","0.5789839","4.356633","-1.6825552","0.58125204","-0.68778783","","","",""
"609","0.79167604","0.436094","4.4558177","-1.7294269","0.58977413","-0.68885314","","","",""
"611","0.8012519","0.27415234","4.4038653","-1.7794942","0.60042685","-0.69737524","-23.085215","-5.4852896","-41.22418",""
"614","0.78210986","0.14555132","4.3896966","-1.8327574","0.6196016","-0.7037668","","","",""
"616","0.7294632","0.045527942","4.413312","-1.8913468","0.6398417","-0.7080279","","","",""
"619","0.5715169","-0.054495364","4.5313888","-1.9520669","0.65901643","-0.7186805","","","",""
"621","0.47100672","-0.1735704","4.602235","-2.0149174","0.68032175","-0.7229416","-23.027332","-4.5887094","-40.515717",""
"624","0.37528303","-0.30693442","4.6730814","-2.0830941","0.7069534","-0.7229416","","","",""
"626","0.23648205","-0.4021948","4.625851","-2.1480753","0.7261282","-0.72081107","","","",""
"629","0.14554468","-0.497455","4.6730824","-2.2045343","0.7367809","-0.72081107","","","",""
"631","-0.041119754","-0.6546338","4.8289433","-2.264189","0.74317247","-0.7176153","-22.661127","-4.245695","-40.74619",""
"634","-0.21821144","-0.78799784","5.0036955","-2.316387","0.75275993","-0.70802796","","","",""
"635","","","","","","","","","","14.207471"
"636","-0.352226","-0.9404136","5.1595564","-2.362193","0.76234734","-0.6973753","","","",""
"637","","","","","","","","","",""
"639","-0.44794977","-1.0642517","5.1926184","-2.4069343","0.7676737","-0.6845921","","","",""
"641","-0.60589606","-1.1928527","5.348479","-2.4431531","0.7740653","-0.66754794","-22.151272","-4.0838604","-41.60407",""
"644","-0.759056","-1.4071869","5.513786","-2.4719155","0.77086955","-0.64943844","","","",""
"646","-0.9792248","-1.6548617","5.6602","-2.495351","0.7580865","-0.6196111","","","",""
"649","-1.1802483","-1.7739369","5.7452154","-2.51133","0.74743384","-0.5823268","","","",""
"651","-1.3812717","-1.907301","5.924691","-2.524113","0.73145497","-0.5375858","-21.872517","-3.1907816","-41.54531",""
"654","-1.5440044","-2.1025832","5.986091","-2.53157","0.7144108","-0.48645312","","","",""
"656","-1.7019508","-2.3359692","5.9813695","-2.527309","0.6920403","-0.42679837","","","",""
"659","-1.76417","-2.507437","6.0285997","-2.5187867","0.66753924","-0.35542575","","","",""
"661","-1.9364754","-2.6455636","6.061662","-2.5028079","0.6441035","-0.2808573","-21.486362","-2.3023992","-41.6568",""
"664","-2.0609171","-2.8170314","6.0616627","-2.4868288","0.61640674","-0.19670148","","","",""
"666","-2.199718","-2.9408696","6.0711093","-2.463393","0.5876447","-0.10828462","","","",""
"669","-2.2762966","-2.9408708","6.1514015","-2.438892","0.5610131","-0.014541437","","","",""
"671","-2.3815928","-2.8884795","6.3025393","-2.4090645","0.5397079","0.070679635","-20.974827","-1.6128702","-41.468037",""
"674","-2.4342396","-2.7789328","6.2978168","-2.36965","0.5205332","0.15163966","","","",""
"676","-2.3863728","-2.588416","6.378109","-2.330235","0.5045543","0.22833863","","","",""
"677","","","","","","","","","",""
"679","-2.3145745","-2.4264767","6.4536777","-2.2844288","0.47579223","0.2911892","","","",""
"681","-2.2427762","-2.126412","6.482017","-2.236492","0.44383436","0.3423218","-20.434214","-0.3691349","-41.62412",""
"684","-2.1805503","-1.9311321","6.4961867","-2.1832287","0.41081125","0.38919342","","","",""
"686","-2.1135383","-1.7072746","6.533972","-2.1214435","0.38204917","0.42328185","","","",""
"689","-2.013022","-1.5167576","6.5528646","-2.0543318","0.3532871","0.45523974","","","",""
"691","-1.9938734","-1.3214779","6.595372","-1.9840245","0.32132924","0.4776103","-20.332035","1.0963831","-42.033554",""
"694","-1.869425","-1.1785905","6.552866","-1.9083909","0.28830612","0.49785024","","","",""
"696","-1.7545495","-0.9547328","6.4395137","-1.8348876","0.2584788","0.50317657","","","",""
"699","-1.6157422","-0.82137144","6.2978234","-1.7613845","0.21906407","0.5031765","","","",""
"701","-1.4817213","-0.61180276","6.26004","-1.6900119","0.170062","0.49145868","-20.539864","2.5877752","-42.5507",""
"703","-1.3429141","-0.40699697","6.1230726","-1.6314223","0.1157336","0.46589231","","","",""
"706","-1.2136793","-0.2164801","6.0144434","-1.5749633","0.053948365","0.43286914","","","",""
"708","-1.0700856","-0.12598532","5.953045","-1.5185043","-0.006771613","0.39132386","","","",""
"711","-0.9599966","-0.0116755515","5.938876","-1.4663063","-0.07068738","0.34764805","-20.516872","3.1360903","-42.58633",""
"713","-0.88341165","0.088345096","5.9152617","-1.4205","-0.14206","0.302907","","","",""
"716","-0.8594768","0.05024024","6.005","-1.384281","-0.21130207","0.26242694","","","",""
"717","","","","","","","","","",""
"718","-0.8451147","0.035950117","6.0664","-1.3459315","-0.2826747","0.22620799","","","",""
"721","-0.8116069","-0.025969535","6.2033687","-1.3129084","-0.35511255","0.1963806","-20.758783","3.330803","-42.25251",""
"723","-0.81160367","-0.0640745","6.5339813","-1.2745589","-0.41370198","0.17507532","","","",""
"726","-0.87860954","-0.09265338","6.7181807","-1.23834","-0.46909568","0.16016163","","","",""
"728","-0.91689706","-0.1879138","6.9496098","-1.2010558","-0.50957566","0.15590055","","","",""
"731","-0.9360392","-0.27841118","7.1668696","-1.161641","-0.5340767","0.15909635","-21.100042","4.27563","-42.409176",""
"733","-1.0509083","-0.31651598","7.3510685","-1.1222262","-0.54792506","0.16229214","","","",""
"736","-1.1035551","-0.42606527","7.4927607","-1.0785505","-0.54472923","0.16974896","","","",""
"738","-1.1609881","-0.5022738","7.4785914","-1.040201","-0.52661973","0.18572792","","","",""
"741","-1.2806437","-0.5403787","7.369962","-1.0018514","-0.5180976","0.19957633","-21.004822","4.2591496","-41.96098",""
"743","-1.3524356","-0.5451429","7.1196427","-0.9762851","-0.50957537","0.21768582","","","",""
"746","-1.5103819","-0.44035918","6.9637833","-0.9581756","-0.5042491","0.23046896","","","",""
"748","-1.7401234","-0.34510145","6.798478","-0.9539145","-0.51490164","0.24218686","","","",""
"751","-1.8932834","-0.18792516","6.6473413","-0.95924085","-0.5351416","0.25390476","-20.969934","4.607418","-41.21689",""
"753","-2.0368705","-0.021223038","6.51982","-0.9762851","-0.5596426","0.26029634","","","",""
"756","-2.2474666","0.1978715","6.359238","-1.0071777","-0.6033184","0.27094898","","","",""
"757","","","","","","","","","",""
"758","-2.4245584","0.37886262","6.363961","-1.0423313","-0.6576468","0.28053635","","","",""
"761","-2.5633593","0.45506853","6.491484","-1.0838766","-0.7173015","0.28799316","-21.317278","5.5463524","-41.06434",""
"763","-2.6542966","0.5836669","6.6567907","-1.1307483","-0.7833477","0.29971105","","","",""
"766","-2.716516","0.73608017","6.8646045","-1.1765546","-0.8493941","0.31462476","","","",""
"768","-2.716513","0.83133805","7.10548","-1.2276872","-0.92183197","0.32847318","","","",""
"771","-2.7308688","0.9075441","7.4502616","-1.2734935","-1.0006614","0.34019104","-21.466736","5.9334717","-41.525864",""
"773","-2.7547972","1.0456686","7.861166","-1.3214304","-1.0880129","0.34764788","","","",""
"776","-2.7500076","1.1504523","8.546007","-1.3651062","-1.1753645","0.35403946","","","",""
"778","-2.6829956","1.1837916","9.211954","-1.3970641","-1.2808255","0.3614963","","","",""
"781","-2.5298293","1.1599755","10.090439","-1.4173042","-1.3873519","0.37214896","-21.34244","6.471199","-41.422512",""
"783","-2.3670905","1.1695004","11.138952","-1.4194347","-1.4885519","0.37640998","","","",""
"786","-2.170847","1.0932918","12.225249","-1.3991945","-1.5759034","0.38812786","","","","26.737238"
"788","-1.869304","1.0599498","13.235979","-1.3533882","-1.658994","0.39771524","","","",""
"791","-1.5629743","1.0123188","14.166418","-1.2894723","-1.7410192","0.40304157","-22.294857","7.264778","-40.86028",""
"793","-1.2087814","0.988503","15.0496235","-1.2180997","-1.8070655","0.41049838","","","",""
"796","-0.9551017","0.99802744","15.998956","-1.1318134","-1.8667202","0.40943313","","","",""
"797","","","","","","","","","",""
"798","-0.72535384","0.90276706","16.89161","-1.0274175","-1.9199833","0.40836784","","","",""
"801","-0.4477424","0.8456105","17.755926","-0.91876066","-1.9572675","0.40197626","-23.506088","7.7106514","-40.237816",""
"803","-0.25149903","0.80750555","18.530502","-0.8005164","-1.9849644","0.3977152","","","",""
"805","-0.016964778","0.74558586","19.092543","-0.68333745","-1.996682","0.3945194","","","",""
"808","0.17449236","0.6503256","19.701815","-0.56509316","-1.9988126","0.3891931","","","",""
"810","0.35159042","0.6407984","20.197735","-0.44791412","-1.98816","0.3881278","","","",""
"811","","","","","","","-23.990992","8.836657","-39.76708",""
"813","0.48082504","0.61221933","20.618086","-0.33925724","-1.9689852","0.39025834","","","",""
"815","0.62441874","0.66937363","21.024265","-0.2391225","-1.9434189","0.39132357","","","",""
"818","0.72972155","0.73605365","21.345432","-0.15177087","-1.9071997","0.39238885","","","",""
"820","0.76322913","0.7503413","21.718554","-0.08146346","-1.8613935","0.3955846","","","",""
"821","","","","","","","-24.388449","9.412598","-39.58556",""
"823","0.82545483","0.6598438","22.053888","-0.02074344","-1.7996081","0.40836778","","","",""
"825","0.80631256","0.621739","22.294764","0.025062898","-1.7229091","0.4286078","","","",""
"828","0.76802504","0.7027079","22.497854","0.060216602","-1.6430143","0.4509783","","","",""
"830","0.7297374","0.79320276","22.653715","0.07619557","-1.5535321","0.4776099","","","",""
"831","","","","","","","-25.094828","9.27783","-39.314854",""
"833","0.66751814","0.85035694","22.771791","0.07939137","-1.4693762","0.5127635","","","",""
"835","0.65316236","1.0027702","22.908762","0.07299979","-1.3873509","0.5425909","","","",""
"837","","","","","","","","","",""
"838","0.7249607","1.1313688","23.022114","0.057020843","-1.3138477","0.5724183","","","",""
"840","0.7967591","1.3123596","23.371618","0.042107165","-1.2563233","0.60757196","","","",""
"841","","","","","","","-26.350082","9.366598","-38.972652",""
"843","0.91642094","1.5266912","23.919493","0.026128214","-1.2158433","0.6384646","","","",""
"845","1.1078781","1.7124453","24.661009","0.015475587","-1.1721674","0.66403097","","","",""
"848","1.2993352","1.9648806","25.355291","0.01973665","-1.1242306","0.6864015","","","",""
"850","1.5195103","2.1506345","25.997627","0.043172456","-1.073098","0.704511","","","",""
"851","","","","","","","-26.126432","9.154209","-38.37881",""
"853","1.8401989","2.4411736","26.432146","0.08045669","-1.0336831","0.7130331","","","",""
"855","2.208751","2.6316903","26.82888","0.12839355","-1.0102472","0.7151635","","","",""
"858","2.606021","2.841259","27.178387","0.19230936","-1.0123777","0.71090245","","","",""
"860","3.0607274","3.017487","27.494831","0.26261678","-1.0326177","0.6949235","","","",""
"861","","","","","","","-26.034258","9.134783","-37.776005",""
"863","3.5441518","3.1603744","27.853783","0.34038103","-1.0667062","0.6661614","","","",""
"865","4.041935","3.2842097","28.30247","0.42453685","-1.1114471","0.6299425","","","",""
"868","4.5684366","3.4318604","28.864511","0.5214758","-1.1721671","0.5788098","","","",""
"870","5.085366","3.527118","29.426554","0.61948","-1.2307566","0.519155","","","",""
"871","","","","","","","-26.708515","9.557171","-38.004757",""
"873","5.492208","3.493776","29.969702","0.7164191","-1.289346","0.4509782","","","",""
"875","5.956487","3.5223527","30.427835","0.81016225","-1.3458049","0.37001815","","","",""
"877","","","","","","","","","",""
"878","6.4111934","3.4985366","30.90014","0.90603596","-1.4001333","0.28905812","","","",""
"880","6.765386","3.4699574","31.296875","0.9912571","-1.4533964","0.21022859","","","",""
"881","","","","","","","-27.513153","9.435938","-38.02764",""
"883","7.0334253","3.4747193","31.731396","1.0690213","-1.5034639","0.121811725","","","",""
"885","7.2823186","3.379459","32.283985","1.136133","-1.5375521","0.030199053","","","",""
"888","7.4498434","3.3461165","32.73268","1.1947224","-1.5663142","-0.059283093","","","",""
"890","7.555146","3.1413085","33.252213","1.2458551","-1.5801626","-0.1466347","","","",""
"891","","","","","","","-27.959635","8.912304","-37.620262",""
"893","7.655663","2.8174264","33.90399","1.2874004","-1.573771","-0.22759475","","","",""
"895","7.7274613","2.5030704","34.52743","1.3300109","-1.5471394","-0.30429372","","","",""
"898","7.7561827","2.074403","35.29256","1.3779477","-1.5013329","-0.3692748","","","",""
"900","7.7513995","1.6266843","36.076588","1.4333414","-1.4310255","-0.4161464","","","",""
"901","","","","","","","-28.617863","8.401007","-37.027008",""
"903","7.6891804","1.1694394","36.907845","1.4983226","-1.331956","-0.4449085","","","",""
"905","7.6078153","0.68837976","37.625744","1.5750216","-1.2094506","-0.46195275","","","",""
"908","7.5168777","0.15492767","38.13583","1.6645037","-1.0624442","-0.46940958","","","",""
"910","7.3302135","-0.38805038","38.5609","1.7752911","-0.90052414","-0.463018","","","",""
"911","","","","","","","-29.553974","8.472738","-37.04092",""
"913","7.138763","-0.70240664","38.811226","1.8988618","-0.7322124","-0.44490853","","","",""
"915","6.9664574","-1.0167627","38.88207","2.0394766","-0.55324817","-0.41508114","","","",""
"917","6.7893662","-1.4406669","38.622307","2.1928747","-0.37854484","-0.37566644","","","",""
"920","6.5979147","-1.7169195","38.268078","2.3569252","-0.21342896","-0.3298601","","","",""
"921","","","","","","","-29.650068","7.013113","-36.940704",""
"922","6.4495416","-1.8502835","37.682423","2.5316284","-0.06429201","-0.27553165","","","",""
"925","6.286809","-1.9312549","37.0212","2.708462","0.06993124","-0.2137464","","","",""
"927","6.186299","-1.9360194","36.204113","2.8789043","0.18711028","-0.15089586","","","",""
"930","6.2341657","-1.9122057","35.084755","3.0450854","0.2755272","-0.09337164","","","",""
"931","","","","","","","-29.799313","5.1875467","-36.656918",""
"932","6.334682","-1.8407627","33.861496","3.1984832","0.33305147","-0.03797794","","","",""
"935","6.416053","-1.6835865","32.76575","3.3369675","0.36500943","0.0025020693","","","",""
"937","6.5069966","-1.5025954","31.537766","3.4552119","0.36287892","0.03552523","","","",""
"940","6.693668","-1.2596861","30.42313","3.5542812","0.33518213","0.06109155","","","",""
"942","6.832475","-0.89294004","29.317942","3.6363065","0.29257163","0.07707049","-29.970673","4.289771","-36.885918",""
"945","7.057436","-0.47856432","28.259983","3.702353","0.22652534","0.071744174","","","",""
"947","7.2919707","-0.10229212","27.164242","3.7449634","0.1381085","0.05256942","","","",""
"950","7.3541965","0.35495013","26.120453","3.7694645","0.031582195","0.019546246","","","",""
"952","7.421209","0.7740888","25.029432","3.7769215","-0.104771495","-0.026260091","-29.56909","2.980195","-37.02514",""
"955","7.454716","1.1170204","24.136778","3.7641382","-0.26562625","-0.08804539","","","",""
"957","7.344633","1.3885074","23.45194","3.7332456","-0.44565573","-0.15622227","","","",""
"960","7.210619","1.602839","23.003254","3.6927657","-0.63314205","-0.22972545","","","",""
"962","7.1053224","1.7695413","22.667921","3.644829","-0.8259548","-0.30535915","-29.902086","2.457755","-37.09722",""
"965","6.9473763","1.8505101","22.469553","3.5862396","-1.0134411","-0.38099286","","","",""
"967","6.8037887","1.8505088","22.483723","3.5212584","-1.1956011","-0.4555613","","","",""
"970","6.6362696","1.7695374","22.767105","3.455212","-1.3564559","-0.52267295","","","",""
"972","6.550119","1.6742771","23.111887","3.3891656","-1.490679","-0.57913196","-29.843718","1.3534803","-37.041603",""
"975","6.5022583","1.5266241","23.371655","3.333772","-1.6014664","-0.63132983","","","",""
"977","6.4735436","1.4027859","23.636145","3.2794435","-1.6749696","-0.680332","","","",""
"980","6.463974","1.283711","23.81562","3.236833","-1.7292979","-0.7218773","","","",""
"982","6.4544044","1.1741617","23.98565","3.1995487","-1.7591252","-0.76342255","-29.965841","-0.6574068","-36.751152",""
"985","6.559707","1.1551086","24.094282","3.1633298","-1.7601904","-0.80390257","","","",""
"987","6.775096","1.0693742","24.226526","3.1303067","-1.7442114","-0.8433173","","","",""
"990","6.894758","0.90743256","24.188744","3.1058056","-1.7133188","-0.8880584","","","",""
"992","7.0622835","0.826461","24.188745","3.0887613","-1.6643165","-0.93493","-31.568222","-1.8423891","-35.511078",""
"995","7.1436543","0.7454896","24.08956","3.0727825","-1.5972049","-0.97967106","","","",""
"997","7.248957","0.5930737","23.891193","3.058934","-1.5173103","-1.0265425","","","",""
"1000","7.3016105","0.54544294","23.626705","3.0525424","-1.4225017","-1.0744796","","","",""
"1002","7.2872543","0.4311308","23.333876","3.0429552","-1.3127795","-1.1277428","-32.249443","-2.9020014","-34.882195",""
"1005","7.215462","0.35015938","22.965483","3.037629","-1.1945351","-1.1788753","","","",""
"1007","7.067089","0.2453731","22.516794","3.0333676","-1.0613772","-1.2278775","","","",""
"1010","6.9905105","0.15963854","21.954754","3.0291066","-0.91756654","-1.2694228","","","",""
"1012","6.7655554","0.0024598986","21.274641","3.0237803","-0.75990754","-1.3130985","-31.971067","-5.485882","-34.92787",""
"1015","6.521455","-0.059459805","20.467001","3.0259109","-0.6022485","-1.3546438","","","",""
"1017","6.301286","-0.14519423","19.494057","3.0291066","-0.4531115","-1.3940586","","","",""
"1020","6.0476127","-0.23092863","18.42193","3.0333676","-0.30823565","-1.4281471","","","",""
"1022","5.7604346","-0.2833224","17.26951","3.0408247","-0.17827342","-1.4686271","-32.422546","-6.7519903","-34.014374",""
"1025","5.478044","-0.36429393","16.003738","3.0514772","-0.056833338","-1.5080417","","","",""
"1027","5.205225","-0.43097663","14.596275","3.0599992","0.048627794","-1.5442607","","","",""
"1029","4.9036884","-0.48813325","13.084907","3.0653257","0.13810998","-1.5826102","","","",""
"1032","4.4633474","-0.5500529","11.379893","3.0621297","0.2030911","-1.6230903","-32.13749","-8.065706","-33.51952",""
"1034","3.9655704","-0.6691281","9.745725","3.0525424","0.23185326","-1.666766","","","",""
"1037","3.5778794","-0.7072329","8.154064","3.0323024","0.23824489","-1.7093766","","","",""
"1039","3.1901884","-0.7405749","6.529342","3.0003448","0.21374387","-1.7487913","","","",""
"1042","2.7163432","-0.754865","4.9329586","2.956669","0.15728495","-1.7860756","-31.526112","-10.127148","-33.49311",""
"1044","2.3142934","-0.8739401","3.506604","2.9023407","0.06780285","-1.82336","","","",""
"1047","2.022329","-0.86441547","2.0141268","2.8384247","-0.05363715","-1.8627747","","","",""
"1049","1.6537833","-0.9263352","0.899492","2.7638562","-0.20703505","-1.90432","","","",""
"1052","1.2182288","-0.8548922","-0.016775323","2.6914184","-0.36895505","-1.9426694","-31.076376","-11.8132515","-33.30978",""
"1054","0.7443837","-0.82155263","-0.9566578","2.61685","-0.52448356","-1.9767579","","","",""
"1057","0.3710517","-0.74534667","-1.7454034","2.5358899","-0.6800119","-2.0129766","","","",""
"1059","-0.10279361","-0.67390364","-2.3074434","2.451734","-0.8408667","-2.0438693","","","",""
"1062","-0.47133917","-0.71200854","-2.9497747","2.3633173","-0.9921341","-2.0705009","-31.303938","-13.079916","-33.200596",""
"1064","-1.0169796","-0.8358466","-3.4787536","2.2631824","-1.1444666","-2.099263","","","",""
"1067","-1.4716797","-1.135914","-3.6865666","2.156656","-1.2978646","-2.1152422","","","",""
"1069","-1.8115072","-1.4978997","-3.696012","2.0543907","-1.4395447","-2.1173728","","","",""
"1072","-2.1513348","-1.9932482","-3.535428","1.9521253","-1.5567235","-2.1216338","-31.62199","-13.799459","-32.64758",""
"1074","-2.3715034","-2.5028856","-3.2709377","1.8562516","-1.6398141","-2.1131117","","","",""
"1077","-2.6060312","-2.9791822","-2.9261556","1.7667695","-1.6877509","-2.0875454","","","",""
"1079","-2.893209","-3.3840346","-2.5624819","1.6794178","-1.700534","-2.0545223","","","",""
"1082","-3.2426093","-3.6650503","-2.1799157","1.5963273","-1.6728371","-2.0140421","-31.653028","-15.093193","-31.951218",""
"1084","-3.6638048","-3.9222507","-1.9154252","1.5174979","-1.6195738","-1.9661052","","","",""
"1085","","","","","","","","","","22.686289"
"1087","-4.094573","-4.098481","-1.7831794","1.4439946","-1.5364833","-1.9139073","","","",""
"1089","-4.472691","-4.327104","-1.6792722","1.3747525","-1.4342179","-1.859579","","","",""
"1092","-4.807732","-4.493809","-1.575365","1.3119019","-1.3202347","-1.8009895","-32.451855","-15.420365","-30.885168",""
"1094","-5.1284146","-4.6700397","-1.4714577","1.2565082","-1.1849462","-1.7274864","","","",""
"1097","-5.429951","-4.7319593","-1.4997951","1.2043104","-1.0432662","-1.6497221","","","",""
"1099","-5.621402","-4.8748493","-1.4431182","1.1563736","-0.89625967","-1.5730231","","","",""
"1102","-5.870289","-4.8939023","-1.5659163","1.1116326","-0.73540485","-1.487802","-32.782085","-16.151693","-29.713703",""
"1104","-6.037808","-4.8700886","-1.7548368","1.0700873","-0.5734848","-1.3983198","","","",""
"1107","-6.157463","-4.793883","-2.0523872","1.0359988","-0.4243478","-1.3130988","","","",""
"1109","-6.10481","-4.741492","-2.4066138","1.0051062","-0.28160244","-1.228943","","","",""
"1112","-6.147884","-4.612893","-2.845855","0.9784746","-0.15377076","-1.147983","-31.856571","-18.972645","-29.53729",""
"1114","-6.257967","-4.5128727","-3.2567582","0.96143043","-0.044048574","-1.0744798","","","",""
"1117","-6.2818956","-4.4652443","-3.667661","0.94545144","0.051825184","-1.0073682","","","",""
"1119","-6.2675333","-4.4557195","-3.8707507","0.931603","0.13278526","-0.9413219","","","",""
"1122","-6.3297524","-4.4652467","-4.168301","0.9241462","0.20522322","-0.8720798","-31.742002","-19.708027","-29.81985",""
"1124","-6.5020576","-4.4842997","-4.6169887","0.9230809","0.26487803","-0.8060335","","","",""
"1127","-6.683936","-4.422383","-5.141244","0.9209504","0.31174967","-0.7410524","","","",""
"1129","-6.8323097","-4.336651","-5.5804853","0.91562414","0.34583813","-0.6771366","","","",""
"1132","-6.9615374","-4.1270823","-6.0905724","0.9145589","0.35329503","-0.61428607","-32.317997","-19.299175","-29.755016",""
"1134","-7.031287","-3.9783416","-6.5728874","0.9113565","0.3521915","-0.5546256","","","",""
"1137","-7.0887246","-3.8926077","-6.964899","0.904961","0.340469","-0.49710625","","","",""
"1139","-7.107871","-3.7640078","-7.27662","0.89537364","0.3191637","-0.44277778","","","",""
"1141","-7.1796675","-3.6592224","-7.5741706","0.8825905","0.29253212","-0.39377567","","","",""
"1142","","","","","","","-32.06419","-19.693935","-29.309122",""
"1144","-7.342404","-3.5115702","-7.8292146","0.8730031","0.26270473","-0.34477356","","","",""
"1146","-7.4142003","-3.3877332","-8.107874","0.86235046","0.23713839","-0.2989672","","","",""
"1149","-7.490783","-3.3591547","-8.405425","0.8453063","0.21050678","-0.25422615","","","",""
"1151","-7.54822","-3.3782065","-8.726591","0.82400095","0.17535308","-0.20948508","","","",""
"1152","","","","","","","-31.724014","-19.902185","-29.349356",""
"1154","-7.5003576","-3.644931","-10.195454","0.7994999","0.11676356","-0.16048296","","","",""
"1156","-7.5769405","-3.649694","-10.918079","0.7771294","-0.018524917","-0.10721978","","","",""
"1157","","","","","","","","","",""
"1159","-7.782755","-3.3972569","-10.162394","0.75795466","-0.1452913","-0.052891336","","","",""
"1161","-7.8497643","-3.1876864","-10.072656","0.72919255","-0.22092502","-0.004954474","","","",""
"1162","","","","","","","-31.642654","-20.458143","-29.329361",""
"1164","-7.9407063","-3.0162199","-10.025426","0.6982999","-0.29016715","0.036590803","","","",""
"1166","-7.983785","-2.83999","-9.930965","0.6599504","-0.33810404","0.076005556","","","",""
"1169","-8.01729","-2.7780712","-10.096272","0.6226662","-0.3796493","0.118616104","","","",""
"1171","-8.055582","-2.7875965","-10.190732","0.5875125","-0.43504307","0.16761822","","","",""
"1172","","","","","","","-31.283411","-21.59713","-28.7022",""
"1174","-8.074729","-2.792359","-10.455223","0.55022824","-0.4946978","0.22727297","","","",""
"1176","-8.136952","-2.8066475","-10.540237","0.51507455","-0.5586136","0.28692776","","","",""
"1179","-8.184816","-2.706625","-10.507176","0.47246403","-0.6172031","0.35190883","","","",""
"1181","-8.213535","-2.663758","-10.299363","0.43091875","-0.67153156","0.41262886","","","",""
"1182","","","","","","","-31.758099","-21.198864","-28.498386",""
"1184","-8.242255","-2.63518","-10.124611","0.3819166","-0.71414214","0.4754794","","","",""
"1186","-8.237471","-2.6494682","-9.9073515","0.32865345","-0.74396956","0.53939515","","","",""
"1189","-8.232685","-2.6589937","-9.657032","0.27006394","-0.7556874","0.6065068","","","",""
"1191","-8.136958","-2.6732821","-9.397265","0.2072134","-0.7556874","0.6704227","","","",""
"1192","","","","","","","-32.459476","-20.591158","-28.733803",""
"1194","-8.079523","-2.6970966","-9.184729","0.14223233","-0.73757803","0.73433846","","","",""
"1196","-8.0268755","-2.7590146","-9.094992","0.070859656","-0.7162728","0.7993195","","","",""
"1197","","","","","","","","","",""
"1199","-7.8593535","-2.8114066","-8.87301","-0.010100376","-0.68644536","0.8643006","","","",""
"1201","-7.6679006","-2.7828286","-8.731318","-0.09532147","-0.6480959","0.934608","","","",""
"1202","","","","","","","-32.41741","-20.97358","-28.102036",""
"1204","-7.4668756","-2.8256946","-8.599073","-0.18373834","-0.6150728","1.0038501","","","",""
"1206","-7.189268","-2.7637758","-8.381815","-0.27748153","-0.5767233","1.0688313","","","",""
"1209","-7.036106","-2.6732793","-8.174002","-0.37229","-0.5330475","1.132747","","","",""
"1211","-6.8637986","-2.554205","-7.9047894","-0.4713595","-0.48404542","1.1924019","","","",""
"1212","","","","","","","-33.047646","-20.194088","-28.05053",""
"1214","-6.696277","-2.4351308","-7.5647316","-0.5693638","-0.42119488","1.2509913","","","",""
"1216","-6.485679","-2.3160565","-7.2671804","-0.667368","-0.35514855","1.3085155","","","",""
"1219","-6.2846537","-2.330345","-7.026306","-0.7696333","-0.2784496","1.3607135","","","",""
"1221","-6.0596957","-2.263663","-6.785432","-0.87615967","-0.19216326","1.4118462","","","",""
"1222","","","","","","","-33.268246","-19.978756","-28.798979",""
"1224","-5.7725163","-2.154115","-6.558727","-0.9816207","-0.1037464","1.4651093","","","",""
"1226","-5.4087553","-2.0445664","-6.355636","-1.0934734","-0.017460072","1.5087851","","","",""
"1229","-5.030635","-1.8683367","-6.332021","-1.2074566","0.05497783","1.5481999","","","",""
"1231","-4.647728","-1.6301886","-6.1761613","-1.3235704","0.11250205","1.5758967","","","",""
"1232","","","","","","","-33.64467","-19.594025","-28.301579",""
"1234","-4.3366165","-1.4491957","-6.0486403","-1.4332925","0.15830837","1.5993325","","","",""
"1235","","","","","","","","","","13.797322"
"1236","-4.0302916","-1.2396253","-5.8077655","-1.5419494","0.19452731","1.6206378","","","",""
"1237","","","","","","","","","",""
"1239","-3.7622566","-1.0681587","-5.368524","-1.6420841","0.22755046","1.6323557","","","",""
"1241","-3.5708039","-0.9586103","-4.282227","-1.7368926","0.27335677","1.6483346","","","",""
"1242","","","","","","","-33.52646","-19.062191","-27.889008",""
"1244","-3.4080691","-0.9776617","-2.8417027","-1.82744","0.3681652","1.662183","","","",""
"1246","-3.0586667","-0.92526877","-1.472024","-1.9158568","0.51836735","1.673901","","","",""
"1248","-2.5369558","-0.8919277","-0.9099835","-1.9978821","0.7047885","1.682423","","","",""
"1251","-1.972168","-0.8347718","-1.3492255","-2.0745811","0.8667085","1.6866841","","","",""
"1252","","","","","","","-33.63298","-17.581388","-28.267181",""
"1253","-1.5413977","-0.7109346","-2.3221703","-2.1470191","0.9476685","1.6877494","","","",""
"1256","-1.215927","-0.5537568","-2.85115","-2.203478","0.9434075","1.6802925","","","",""
"1258","-1.0149015","-0.44897127","-2.813366","-2.2375665","0.8869485","1.6653788","","","",""
"1261","-0.81387603","-0.35371172","-2.350509","-2.2460885","0.8177063","1.6504651","","","",""
"1262","","","","","","","-33.928257","-15.53993","-28.4951",""
"1263","-0.6032777","-0.22034866","-1.8309759","-2.239697","0.7537905","1.6270293","","","",""
"1266","-0.2730208","-0.05840777","-1.538148","-2.223718","0.68561363","1.5961367","","","",""
"1268","0.09074056","0.09400715","-1.3067197","-2.2024128","0.618502","1.5599178","","","",""
"1271","0.43535653","0.34168124","-0.99027705","-2.1779118","0.5460641","1.5119809","","","",""
"1272","","","","","","","-34.04668","-13.859077","-29.652985",""
"1273","0.7895453","0.49885905","-0.7021723","-2.1523454","0.46403873","1.4587177","","","",""
"1276","1.0575796","0.551252","-0.4518519","-2.122518","0.38414398","1.4043893","","","",""
"1277","","","","","","","","","",""
"1278","1.3304005","0.52743775","-0.0645636","-2.0926907","0.29679233","1.3457998","","","",""
"1281","1.5409986","0.50362337","0.2518793","-2.054341","0.21796285","1.2893409","","","",""
"1282","","","","","","","-34.23516","-13.086589","-30.900892",""
"1283","1.7037334","0.4369424","0.69584394","-2.0138612","0.14978597","1.2307513","","","",""
"1286","1.8616818","0.35597265","1.1114705","-1.9733812","0.09332698","1.176423","","","",""
"1288","1.9813393","0.37978786","1.4326365","-1.9243791","0.047520623","1.119964","","","",""
"1291","2.0244155","0.3702624","1.7774175","-1.8775074","0.016627971","1.0560483","","","",""
"1292","","","","","","","-33.785637","-12.560007","-31.462881",""
"1293","2.1201415","0.3750257","1.9993997","-1.8306359","-0.007873106","1.002785","","","",""
"1296","2.1727903","0.33692247","2.1930437","-1.7858949","-0.023852075","0.95058703","","","",""
"1298","2.2302253","0.3131082","2.4811485","-1.7454149","-0.03556999","0.9047807","","","",""
"1301","2.2350106","0.32739753","2.8212066","-1.7070653","-0.029178422","0.86217016","","","",""
"1302","","","","","","","-33.995422","-11.808142","-31.628517",""
"1303","2.1967187","0.33692378","3.1376493","-1.6708463","-0.011068956","0.82595116","","","",""
"1306","2.187145","0.32263532","3.5674448","-1.6378232","0.030476307","0.7907975","","","",""
"1308","2.1536393","0.35597646","3.8791645","-1.6090611","0.08800053","0.76203537","","","",""
"1311","2.048339","0.37979165","4.0303016","-1.5834948","0.15937316","0.7385996","","","",""
"1312","","","","","","","-34.351906","-10.878043","-31.012133",""
"1313","2.024406","0.4131328","4.2475605","-1.5579284","0.24779002","0.71516377","","","",""
"1316","2.067482","0.55125886","4.4081435","-1.5376884","0.33727214","0.6938585","","","",""
"1317","","","","","","","","","",""
"1318","2.0674808","0.67509604","4.554557","-1.5227747","0.43208057","0.67255324","","","",""
"1321","2.0531209","0.8275111","4.6962476","-1.5014695","0.526889","0.6480522","","","",""
"1322","","","","","","","-34.206295","-10.3196945","-31.991055",""
"1323","2.0579062","0.9322965","4.776539","-1.4801642","0.62489325","0.62461644","","","",""
"1326","2.014828","1.0513706","4.823769","-1.4620547","0.72502804","0.59798485","","","",""
"1328","1.9047407","1.1418673","4.837938","-1.4354231","0.82516277","0.5766796","","","",""
"1331","1.9143122","1.1990231","4.677355","-1.4087915","0.9167754","0.55750483","","","",""
"1332","","","","","","","-33.690357","-10.151968","-33.158154",""
"1333","1.8903795","1.3038086","4.4175878","-1.3757684","0.99773544","0.5415259","","","",""
"1336","1.8855921","1.3419126","4.058637","-1.3427452","1.0595206","0.5234164","","","",""
"1338","1.9047364","1.4085944","3.723302","-1.3043957","1.0861522","0.5116985","","","",""
"1341","1.8520855","1.5324316","3.3974128","-1.2596546","1.0936091","0.50211114","","","",""
"1342","","","","","","","-33.555244","-9.07771","-32.47199",""
"1343","1.8760163","1.5133802","3.033739","-1.2117178","1.0818912","0.49039322","","","",""
"1346","1.9190923","1.5848249","2.7409108","-1.1595199","1.0541943","0.47547954","","","",""
"1348","1.9286638","1.6991364","2.5330973","-1.103061","1.0115838","0.45843533","","","",""
"1351","1.9190902","1.6896107","2.4150212","-1.0487325","0.9657774","0.4413911","","","",""
"1352","","","","","","","-33.518394","-7.9899178","-32.079414",""
"1353","1.9621662","1.7134261","2.3016684","-0.99333876","0.9061226","0.4275427","","","",""
"1356","1.9573787","1.746767","2.1930385","-0.9390103","0.8432721","0.41369426","","","",""
"1357","","","","","","","","","",""
"1358","1.9525913","1.7801082","2.1930382","-0.8814861","0.7697689","0.39558476","","","",""
"1360","2.0387444","1.8229754","2.2260993","-0.8250271","0.6920046","0.38173634","","","",""
"1362","","","","","","","-33.324635","-7.8081007","-32.735786",""
"1363","2.1248977","1.8515533","2.2733295","-0.76643765","0.624893","0.36362687","","","",""
"1365","2.1775465","1.9087093","2.3725128","-0.7057177","0.5609772","0.3476479","","","",""
"1368","2.2876313","1.9658651","2.443358","-0.650324","0.5002572","0.3306037","","","",""
"1370","2.3546393","2.0039692","2.5944948","-0.5906692","0.44166762","0.311429","","","",""
"1372","","","","","","","-33.16105","-7.443909","-33.24421",""
"1373","2.488656","2.161147","2.7786927","-0.5299492","0.38520864","0.28905845","","","",""
"1375","2.6705363","2.2659326","2.9912288","-0.46922913","0.33727178","0.26668793","","","",""
"1378","2.8189118","2.5040805","3.3076718","-0.4117049","0.29040015","0.24218684","","","",""
"1380","2.9672875","2.5755253","3.6807911","-0.34565857","0.25418118","0.21022895","","","",""
"1382","","","","","","","-33.115067","-6.3472786","-33.31546",""
"1383","3.0438683","2.6993625","4.0114026","-0.27641645","0.22541907","0.17614052","","","",""
"1385","3.1348076","2.8184369","4.3514605","-0.2103701","0.20624432","0.14311735","","","",""
"1386","","","","","","","","","","31.859715"
"1388","3.1778836","2.8851187","4.7056875","-0.1464543","0.20730956","0.117551036","","","",""
"1390","3.16831","2.8803563","4.743472","-0.08040797","0.21050534","0.08559313","","","",""
"1392","","","","","","","-32.694622","-6.3749037","-33.532604",""
"1393","3.130018","2.9756157","4.8615475","-0.018622683","0.2083748","0.057896283","","","",""
"1395","3.115658","3.0089567","5.433034","0.036771018","0.2105053","0.034460485","","","",""
"1397","","","","","","","","","",""
"1398","3.1635203","3.0280092","6.0234127","0.079381555","0.23820215","0.012089954","","","",""
"1400","3.2879643","3.0661132","6.467377","0.108143665","0.28613898","-0.002823733","","","",""
"1402","","","","","","","-32.555977","-7.2985544","-33.653893",""
"1403","3.3597586","3.0565877","6.972741","0.1305142","0.35112002","-0.010280576","","","",""
"1405","3.3501847","3.0137215","7.393091","0.14755842","0.42994952","-0.010280573","","","",""
"1408","3.2927475","2.9660923","7.879563","0.16886368","0.5215622","3.7206418E-4","","","",""
"1410","3.3597553","2.9613297","8.347142","0.1859079","0.6248927","0.021677336","","","",""
"1412","","","","","","","-32.705437","-6.9114356","-34.115417",""
"1413","3.512917","3.0232482","8.621078","0.20188686","0.7314191","0.044047873","","","",""
"1415","3.6995838","3.1851895","8.843061","0.21467","0.83048856","0.062157355","","","",""
"1418","3.7761645","3.4185748","9.046151","0.22212684","0.91038334","0.08346263","","","",""
"1420","3.8048816","3.7853227","9.18784","0.22319211","0.9689728","0.10263737","","","",""
"1422","","","","","","","-32.622116","-6.7278666","-34.446938",""
"1423","3.871889","4.1949368","9.438162","0.21680053","1.0041264","0.12287738","","","",""
"1425","4.0872736","4.737914","9.768773","0.20827842","1.0051917","0.14205211","","","",""
"1428","4.2356496","5.209447","10.23163","0.20401737","0.98708224","0.15803108","","","",""
"1430","4.451034","5.7381353","10.732271","0.19762577","0.9402106","0.17294477","","","",""
"1432","","","","","","","-32.309067","-6.750795","-34.493835",""
"1433","4.685564","6.2382455","11.365157","0.19656052","0.86670744","0.18892373","","","",""
"1435","4.8770165","6.8145633","12.087781","0.20401736","0.771899","0.20170689","","","",""
"1437","","","","","","","","","",""
"1438","5.12112","7.3956447","12.970987","0.22106157","0.6398063","0.20809847","","","",""
"1440","5.3700085","8.057695","13.962824","0.25408474","0.485343","0.20916374","","","",""
"1442","","","","","","","-31.885572","-6.7754745","-34.865585",""
"1443","5.594966","8.90074","15.332502","0.3020216","0.3212924","0.20277216","","","",""
"1445","5.762487","9.8819065","16.749414","0.37232897","0.15085025","0.1931848","","","",""
"1448","5.9060764","10.963099","18.001017","0.46820268","-0.023852987","0.16974899","","","",""
"1450","6.1071014","12.030001","18.978683","0.58218586","-0.19962148","0.14418268","","","",""
"1452","","","","","","","-31.878399","-7.506163","-34.9779",""
"1453","6.4708633","13.034985","19.69186","0.7046912","-0.39456475","0.11009425","","","",""
"1455","6.8681293","13.854212","20.135826","0.82400066","-0.6257269","0.07707108","","","",""
"1458","7.2988997","14.563894","20.551453","0.93052703","-0.9048259","0.041917384","","","",""
"1460","7.7488146","14.987797","20.92457","1.011487","-1.2222745","0.008894219","","","",""
"1462","","","","","","","-32.21031","-8.765183","-34.853085",""
"1463","8.428474","15.378361","21.505505","1.0572934","-1.591921","-0.020933159","","","",""
"1465","9.275658","15.778448","22.516233","1.0700766","-1.9913948","-0.05395633","","","",""
"1468","10.141985","15.978493","23.87174","1.0540977","-2.404717","-0.095501594","","","",""
"1470","10.979595","16.083277","25.888475","1.002965","-2.8095171","-0.14130794","","","",""
"1472","","","","","","","-32.714077","-8.921127","-34.30443",""
"1473","11.94165","16.159487","28.377512","0.9347881","-3.172772","-0.19031006","","","",""
"1475","12.918063","16.0547","31.282175","0.8527628","-3.475307","-0.2329206","","","",""
"1477","13.999778","15.77845","34.51273","0.76647645","-3.71073","-0.26700902","","","",""
"1480","15.1484995","15.416468","38.050278","0.6780596","-3.8492143","-0.2936406","","","",""
"1482","16.311583","15.002089","41.8287","0.6024258","-3.8928902","-0.32133746","-33.58818","-8.686449","-33.56759",""
"1485","17.388508","14.568661","45.63074","0.54596686","-3.83004","-0.34477326","","","",""
"1487","18.340992","14.144758","49.442226","0.52572685","-3.6574671","-0.3777964","","","",""
"1490","19.259968","13.649412","53.027008","0.55235845","-3.3719766","-0.41295013","","","",""
"1492","19.930058","13.025465","56.14893","0.62479633","-2.989547","-0.45023435","-34.858646","-8.6124115","-32.452335",""
"1495","20.312965","12.444386","58.576572","0.7462364","-2.5314837","-0.48964912","","","",""
"1497","20.456554","11.849016","60.187126","0.9113522","-2.0308099","-0.5290638","","","",""
"1500","20.466124","11.272699","61.004204","1.1190786","-1.5184181","-0.557826","","","",""
"1502","20.44219","10.682095","61.20257","1.363024","-1.0070915","-0.58126175","-35.640575","-8.397161","-31.11269",""
"1505","20.265097","10.134354","60.720825","1.6314704","-0.5181356","-0.5951102","","","",""
"1507","19.90133","9.677113","59.507004","1.9148306","-0.06965967","-0.5919144","","","",""
"1510","19.360474","9.429438","57.81616","2.2024517","0.321292","-0.58765334","","","",""
"1512","18.699957","9.319891","55.68607","2.4890075","0.6515237","-0.578066","","","",""
"1513","","","","","","","-35.941727","-8.574282","-30.286076",""
"1515","17.9485","9.153189","53.1073","2.757454","0.9157091","-0.56315225","","","",""
"1517","17.144392","8.948381","50.22625","3.0067255","1.097869","-0.54078174","","","",""
"1520","16.4408","8.810257","47.156277","3.2336268","1.1980039","-0.505628","","","",""
"1522","15.660622","8.676893","44.128815","3.4232438","1.2043954","-0.4715396","","","",""
"1523","","","","","","","-35.5252","-10.08096","-29.800192",""
"1525","14.923522","8.557819","41.20054","3.5830333","1.1404796","-0.42786378","","","",""
"1527","14.29651","8.495903","38.5887","3.7183216","1.0264964","-0.38099217","","","",""
"1530","13.707788","8.467325","36.29803","3.8227174","0.8720331","-0.3362511","","","",""
"1532","13.210007","8.510193","34.16322","3.9164608","0.6941341","-0.29790163","","","",""
"1533","","","","","","","-35.12361","-11.390534","-29.939417",""
"1535","12.745729","8.638792","32.13704","3.986768","0.5023867","-0.2691395","","","",""
"1537","12.343675","8.819784","30.23838","4.0400314","0.3021171","-0.24996474","","","",""
"1540","11.888971","8.953148","28.481413","4.0762506","0.096521236","-0.23824684","","","",""
"1542","11.395976","9.005541","26.833076","4.099686","-0.10800937","-0.2339858","","","",""
"1543","","","","","","","-35.38438","-12.477771","-29.527676",""
"1545","10.845546","8.967438","25.307537","4.1146","-0.31040946","-0.23078999","","","",""
"1547","10.3621235","9.057934","23.890627","4.107143","-0.5000264","-0.23398578","","","",""
"1550","9.907419","9.096039","22.643747","4.0932946","-0.6757949","-0.23931211","","","",""
"1552","9.371347","9.043646","21.349634","4.07412","-0.8451718","-0.24463841","","","",""
"1553","","","","","","","-35.096275","-13.788542","-29.187437",""
"1555","8.950147","8.991253","20.060246","4.046423","-0.99643916","-0.25316054","","","",""
"1557","8.476297","8.910284","18.907827","4.0144653","-1.1370541","-0.2680742","","","",""
"1560","7.959371","8.8388405","17.802637","3.9761155","-1.2659509","-0.2776616","","","",""
"1562","7.5525303","8.715004","16.697449","3.9271133","-1.3746078","-0.2861837","","","",""
"1563","","","","","","","-35.57488","-14.869329","-28.280602",""
"1565","7.140904","8.557827","15.7245035","3.8727849","-1.4587636","-0.3010974","","","",""
"1567","6.7053447","8.291101","14.666545","3.8099344","-1.5269405","-0.31494582","","","",""
"1570","6.255427","8.005325","13.608584","3.7332351","-1.5791384","-0.32133737","","","",""
"1572","5.839014","7.7576523","12.597856","3.6426878","-1.6164227","-0.32985947","","","",""
"1573","","","","","","","-36.207947","-16.305471","-27.32917",""
"1575","5.398669","7.552845","11.648527","3.5393572","-1.6270754","-0.33092475","","","",""
"1577","5.049264","7.3242245","10.604737","3.417917","-1.613227","-0.33092475","","","",""
"1580","4.747723","7.1384697","9.556224","3.2698455","-1.5855302","-0.33625105","","","",""
"1582","4.4605412","6.924136","8.597448","3.0994034","-1.5439849","-0.33625105","","","",""
"1583","","","","","","","-36.1186","-18.540531","-25.826439",""
"1585","4.182932","6.757434","7.676457","2.9087212","-1.491787","-0.34264264","","","",""
"1587","3.98669","6.5002346","6.9018793","2.70206","-1.4342626","-0.34690368","","","",""
"1589","3.8048086","6.333532","6.3020544","2.4826157","-1.3671511","-0.35009947","","","",""
"1592","3.6803622","6.1525397","5.829751","2.252519","-1.2979089","-0.3607521","","","",""
"1593","","","","","","","-36.348606","-18.545868","-24.712904",""
"1594","3.5798476","5.9620223","5.2960486","2.0213566","-1.2190796","-0.37779632","","","",""
"1597","3.48412","5.6952972","4.8190217","1.7859335","-1.1413153","-0.40123212","","","",""
"1599","3.3453145","5.3618913","4.4411793","1.5505103","-1.071008","-0.4310595","","","",""
"1602","3.1538596","5.0427737","3.9735992","1.3246744","-1.0070921","-0.46621317","","","",""
"1603","","","","","","","-36.731117","-18.16703","-23.906284",""
"1604","2.9193275","4.5426636","3.5390801","1.1094912","-0.9623511","-0.50562793","","","",""
"1607","2.7182999","4.0758944","2.9912083","0.90389526","-0.9431763","-0.54610795","","","",""
"1609","2.4837675","3.5853107","2.4575055","0.7068215","-0.94424164","-0.5855227","","","",""
"1612","2.1965857","3.0042307","2.0560477","0.5246615","-0.9815259","-0.6260027","","","",""
"1613","","","","","","","-36.739166","-18.912449","-23.24555",""
"1614","1.8854719","2.3802843","1.8010037","0.35315406","-1.0518333","-0.65902585","","","",""
"1617","1.4546995","1.7658637","1.6026363","0.19762559","-1.143446","-0.68352693","","","",""
"1619","1.0861496","1.1800208","1.5034523","0.06127185","-1.264886","-0.6984406","","","",""
"1622","0.7941812","0.61322975","1.4892831","-0.061233457","-1.4076314","-0.69950587","","","",""
"1623","","","","","","","-36.556496","-19.478996","-23.086582",""
"1624","0.49742666","0.18932723","1.6215277","-0.16136822","-1.5684861","-0.6899185","","","",""
"1627","0.24374911","-0.26315287","1.8624021","-0.23806721","-1.7378631","-0.671809","","","",""
"1629","0.009216979","-0.72992206","2.197737","-0.29452616","-1.9146968","-0.6451774","","","",""
"1632","-0.13437462","-1.1871651","2.693655","-0.32967988","-2.0925958","-0.61321956","","","",""
"1633","","","","","","","-37.16766","-19.630243","-22.367678",""
"1634","-0.29232508","-1.7301415","3.321818","-0.33820197","-2.258777","-0.57273954","","","",""
"1637","-0.3928395","-2.2254882","3.9263659","-0.32648408","-2.412175","-0.51947635","","","",""
"1639","-0.41198593","-2.7017832","4.535636","-0.29559144","-2.5346801","-0.4619521","","","",""
"1642","-0.40720063","-3.0637674","5.111846","-0.24765459","-2.6401412","-0.4001668","","","",""
"1643","","","","","","","-37.82893","-20.144485","-21.619814",""
"1644","-0.42156076","-3.2971516","5.6738863","-0.18054299","-2.7211015","-0.33198994","","","",""
"1647","-0.43113455","-3.4352767","6.1556354","-0.094256654","-2.7583857","-0.26274782","","","",""
"1649","-0.41677663","-3.578165","6.44374","-0.0015787295","-2.7647774","-0.19563621","","","",""
"1652","-0.38327324","-3.6591346","6.5901537","0.099621296","-2.7338846","-0.12745935","","","",""
"1653","","","","","","","-37.924423","-20.339836","-20.669853",""
"1654","-0.36891526","-3.6591344","6.5287538","0.20614766","-2.6763604","-0.06354353","","","",""
"1657","-0.3210529","-3.6638968","6.415401","0.30521718","-2.6028574","-0.002823503","","","",""
"1659","-0.19660887","-3.5305338","6.169803","0.4010909","-2.513375","0.048309147","","","",""
"1662","-0.05301948","-3.4352744","5.995051","0.49270356","-2.3940656","0.08452811","","","",""
"1663","","","","","","","-38.70635","-20.124588","-19.330208",""
"1664","0.08578348","-3.3352518","5.7588997","0.5768593","-2.2545161","0.10476812","","","",""
"1667","0.13364589","-3.2495182","5.4188404","0.64929724","-2.0755517","0.11648602","","","",""
"1669","0.028345227","-3.1542587","4.9890447","0.7110825","-1.8678254","0.111159705","","","",""
"1672","-0.1726825","-3.1066287","4.379773","0.7632804","-1.6398592","0.09731128","","","",""
"1673","","","","","","","-39.323597","-20.281723","-18.302088",""
"1674","-0.44550547","-3.0589986","3.5154588","0.80269516","-1.3937832","0.08026707","","","",""
"1677","-0.7231147","-2.9542131","2.414992","0.830392","-1.1519685","0.05150495","","","",""
"1679","-1.0868782","-2.9780276","1.3712021","0.8421099","-0.92187154","0.018481787","","","",""
"1682","-1.412351","-2.9399238","0.29907387","0.8421099","-0.70136195","-0.012410852","","","",""
"1683","","","","","","","-39.332726","-20.290562","-17.838257",""
"1684","-1.79526","-2.8922937","-0.96669865","0.82506573","-0.5010925","-0.043303493","","","",""
"1686","","","","","","","","","","25.357092"
"1687","-2.154237","-2.8399007","-2.0104887","0.7931078","-0.31041032","-0.07632666","","","",""
"1689","-2.5515049","-2.7065377","-3.077894","0.74730146","-0.13144605","-0.1072193","","","",""
"1692","-3.058859","-2.5207822","-4.244483","0.68338567","0.04112662","-0.14663406","","","",""
"1693","","","","","","","-39.429306","-19.749334","-17.085201",""
"1694","-3.6427944","-2.354078","-5.297719","0.5970993","0.20943825","-0.18711406","","","",""
"1697","-4.1740804","-2.3826556","-6.3840165","0.49270353","0.37668458","-0.22439829","","","",""
"1699","-4.604852","-2.368366","-7.4278064","0.3691329","0.53753936","-0.2616825","","","",""
"1701","-5.0691295","-2.3921804","-8.528273","0.21999604","0.68241525","-0.29257512","","","",""
"1703","","","","","","","-39.46143","-20.306488","-16.585743",""
"1704","-5.5046883","-2.4636245","-9.562617","0.05061913","0.8272911","-0.3224025","","","",""
"1706","-5.911529","-2.5064905","-10.4363785","-0.13367146","0.9615142","-0.34477305","","","",""
"1709","-6.433242","-2.596986","-11.192063","-0.333941","1.0893459","-0.36501306","","","",""
"1711","-6.8975186","-2.6541414","-11.91941","-0.5459285","1.2086552","-0.37992674","","","",""
"1713","","","","","","","-39.03076","-21.061855","-17.069813",""
"1714","-7.3091455","-2.630326","-12.396436","-0.7738949","1.3300953","-0.38525307","","","",""
"1716","-7.4670963","-2.206423","-12.3208685","-1.0242318","1.466449","-0.39057937","","","",""
"1717","","","","","","","","","",""
"1719","-7.5484653","-2.0111413","-12.703435","-1.2969393","1.635826","-0.4076236","","","",""
"1721","-7.888297","-2.5493546","-13.525241","-1.5739077","1.7902892","-0.41721097","","","",""
"1723","","","","","","","-38.801846","-20.319939","-18.380253",""
"1724","-8.357361","-2.9732573","-13.610256","-1.8434194","1.9170555","-0.41401517","","","",""
"1726","-8.721124","-3.2304559","-13.699995","-2.095887","2.0257123","-0.41188464","","","",""
"1729","-9.075315","-3.4733665","-13.851131","-2.3323753","2.1130638","-0.40549305","","","",""
"1731","-9.439078","-3.7686691","-14.011715","-2.557146","2.173784","-0.38738358","","","",""
"1733","","","","","","","-38.47053","-20.325191","-19.354809",""
"1734","-9.812415","-4.1163645","-14.006991","-2.7648723","2.2089376","-0.35968673","","","",""
"1736","-10.14746","-4.445008","-13.992824","-2.953424","2.2078724","-0.31174985","","","",""
"1739","-10.42507","-4.587896","-13.832241","-3.127062","2.186567","-0.24463825","","","",""
"1741","-10.563875","-4.640288","-13.605535","-3.2836556","2.1503482","-0.1615477","","","",""
"1743","","","","","","","-37.844147","-20.159214","-20.846764",""
"1744","-10.673962","-4.683154","-13.284369","-3.4264011","2.1034765","-0.07632661","","","",""
"1746","-10.563877","-4.568843","-13.034048","-3.556363","2.0459523","0.0035681583","","","",""
"1749","-10.449006","-4.578368","-12.651484","-3.6756728","1.979906","0.07920188","","","",""
"1751","-10.338921","-4.6402864","-12.382271","-3.781134","1.9127942","0.15483558","","","",""
"1753","","","","","","","-37.170704","-19.63319","-22.21307",""
"1754","-10.166614","-4.726019","-12.136674","-3.8770075","1.8403563","0.22301245","","","",""
"1756","-9.92251","-4.845093","-11.768276","-3.9590328","1.7508742","0.29225457","","","",""
"1757","","","","","","","","","",""
"1759","-9.697554","-4.9165363","-11.352651","-4.0336013","1.6496742","0.36256197","","","",""
"1761","-9.486955","-4.8927207","-10.9323015","-4.0943213","1.5388868","0.4286083","","","",""
"1763","","","","","","","-37.15048","-18.875988","-23.492239",""
"1764","-9.266784","-4.835565","-10.384429","-4.1433234","1.422773","0.50104624","","","",""
"1766","-8.965245","-4.740306","-9.841281","-4.175281","1.3077246","0.57241887","","","",""
"1769","-8.644561","-4.6069427","-9.269795","-4.2008476","1.1820234","0.641661","","","",""
"1771","-8.271228","-4.4402385","-8.764431","-4.2136307","1.0605834","0.70983785","","","",""
"1773","","","","","","","-36.58856","-17.61163","-24.730595",""
"1774","-7.873961","-4.3259273","-8.268513","-4.2178917","0.93807805","0.77908","","","",""
"1776","-7.3857546","-4.1258826","-7.5931196","-4.214696","0.80172426","0.8440611","","","",""
"1779","-6.921479","-3.9401274","-6.9177265","-4.1965866","0.66430527","0.90584636","","","",""
"1781","-6.457205","-3.6829274","-6.1384263","-4.175281","0.5322126","0.95910954","","","",""
"1783","","","","","","","-36.480293","-16.140219","-25.44925",""
"1784","-5.8972034","-3.4019127","-5.5291557","-4.137997","0.41503355","1.009177","","","",""
"1786","-5.279765","-3.2018683","-4.929331","-4.097517","0.30318087","1.0560486","","","",""
"1789","-4.710191","-2.96372","-4.301168","-4.04958","0.19558924","1.0912023","","","",""
"1791","-4.107112","-2.696994","-3.720235","-3.9984474","0.097584985","1.1125076","","","",""
"1793","","","","","","","-36.964924","-14.802379","-26.376665",""
"1794","-3.4896743","-2.4159796","-3.1156874","-3.9451845","-0.008941383","1.130617","","","",""
"1796","-2.8770227","-2.0444686","-2.7236762","-3.8887253","-0.110141434","1.1476612","","","",""
"1797","","","","","","","","","",""
"1799","-2.3600981","-1.6777209","-2.2986035","-3.8301358","-0.20921095","1.1508571","","","",""
"1801","-1.747447","-1.3300247","-1.7932395","-3.765155","-0.3168026","1.146596","","","",""
"1803","","","","","","","-36.96405","-13.326273","-26.925076",""
"1804","-1.1970179","-0.9061215","-1.3114905","-3.6959128","-0.41693738","1.1412697","","","",""
"1806","-0.6178708","-0.6679733","-0.92892534","-3.6298666","-0.5160069","1.126356","","","",""
"1809","-0.067441896","-0.35838082","-0.40939212","-3.5691466","-0.6150764","1.1018549","","","",""
"1811","0.44948253","-0.1059439","0.053464722","-3.5073612","-0.70242804","1.0741581","","","",""
"1813","0.9616208","0.14649314","0.65801245","-3.449837","-0.78232276","1.0347433","-36.739532","-12.062554","-26.87965",""
"1816","1.3971775","0.48942614","1.3239597","-3.405096","-0.8462387","0.9900022","","","",""
"1818","1.7896565","0.69899654","2.2921808","-3.3816602","-0.86754394","0.94206536","","","",""
"1821","2.148632","0.8037821","3.0620346","-3.400835","-0.81641126","0.8877369","","","",""
"1823","2.46453","0.83712316","3.5012763","-3.4509022","-0.7216028","0.84619164","-37.58841","-10.328202","-27.928106",""
"1826","2.6368372","0.8418865","4.00664","-3.5116224","-0.6140113","0.8142338","","","",""
"1828","2.8474355","0.8847534","4.8851233","-3.5925825","-0.48404914","0.80038536","","","",""
"1831","2.9431615","0.7799689","5.61247","-3.727871","-0.27632275","0.8121032","","","",""
"1833","3.2064095","0.82759887","5.9619746","-3.9015088","-0.029181631","0.83127797","-37.607483","-9.397465","-28.5955",""
"1836","3.5797436","0.95143616","6.4626155","-4.0463843","0.1945237","0.8248864","","","","40.915012"
"1837","","","","","","","","","",""
"1838","3.8621368","1.318184","7.298592","-4.133736","0.3809448","0.7812106","","","",""
"1841","4.0057263","1.7754279","8.177075","-4.17102","0.5364733","0.7194253","","","",""
"1843","4.0440164","2.3422198","8.942205","-4.155041","0.6547175","0.6363348","-37.251495","-8.326709","-28.559046",""
"1846","4.0105104","2.8566194","9.749845","-4.088995","0.7356775","0.53726524","","","",""
"1848","3.895637","3.06619","10.524422","-3.9803383","0.7910712","0.4456526","","","",""
"1851","3.771191","2.9899833","11.195091","-3.8386583","0.8326165","0.36149678","","","",""
"1853","3.6419585","2.828043","11.941329","-3.6703465","0.86031336","0.2997115","-36.860344","-6.695854","-29.176655",""
"1856","3.4505036","2.58037","12.508093","-3.4754033","0.8805533","0.26136202","","","",""
"1858","3.306912","2.3041186","12.918997","-3.263416","0.8944017","0.23579569","","","",""
"1861","3.2016115","2.1755197","13.348793","-3.0397105","0.895467","0.2240778","","","",""
"1863","3.187251","2.070735","13.68885","-2.802157","0.9007933","0.20916413","-36.987896","-5.023839","-29.870708",""
"1866","3.2111819","2.0945501","14.014739","-2.556081","0.90292376","0.19105464","","","",""
"1868","3.1920352","2.1421802","14.350074","-2.3004177","0.91144586","0.17614095","","","",""
"1871","3.115453","2.2612545","14.411473","-2.035167","0.92103326","0.1633578","","","",""
"1873","3.0628018","2.4994025","14.387857","-1.7688512","0.93807745","0.15057462","-37.403343","-4.2537413","-30.159687",""
"1876","3.0532281","2.718499","14.312289","-1.5078616","0.9561869","0.13885674","","","",""
"1877","","","","","","","","","",""
"1878","2.9479275","2.8280473","14.057245","-1.2468721","0.9700353","0.12607358","","","",""
"1881","2.861772","2.8661513","13.561327","-0.9954698","0.9753616","0.11542095","","","",""
"1883","2.8904889","3.0185664","12.952056","-0.7557855","0.9668395","0.1111599","-37.11741","-4.091351","-30.213251",""
"1886","2.986215","3.166218","12.309724","-0.5224928","0.9391426","0.109029375","","","",""
"1888","3.0915136","3.351974","11.733513","-0.30304855","0.892271","0.10050727","","","",""
"1891","3.1824532","3.6329885","11.091181","-0.09319164","0.8347468","0.089854635","","","",""
"1893","3.2398884","3.8473222","10.5622015","0.10281684","0.77189624","0.07174516","-36.70109","-3.3853412","-30.472687",""
"1896","3.3404005","4.018789","9.900976","0.28497693","0.7101109","0.05150515","","","",""
"1898","3.3882627","4.1473894","9.291705","0.4522233","0.64193404","0.037656724","","","",""
"1901","3.306894","4.3903","8.672988","0.6002949","0.57269186","0.018481987","","","",""
"1903","3.2973201","4.4331665","8.040102","0.72812647","0.4917318","0.0035682989","-36.611683","-3.1958814","-31.113422",""
"1906","3.321251","4.6093965","7.496953","0.8335876","0.41183704","-0.009214861","","","",""
"1908","3.383472","4.8237295","7.11911","0.92200446","0.3244854","-0.029454866","","","",""
"1911","3.364326","5.061878","6.8498974","0.99444234","0.24672115","-0.05076014","","","",""
"1913","3.5079153","5.247634","6.703483","1.045575","0.17854427","-0.07419593","-36.365646","-4.124228","-31.404951",""
"1916","3.7185135","5.4429154","6.6326375","1.0807288","0.11782425","-0.10615383","","","",""
"1917","","","","","","","","","",""
"1918","3.8333845","5.590567","6.6656985","1.1073602","0.06988738","-0.13811174","","","",""
"1921","4.0679145","5.776323","6.8121123","1.122274","0.046451554","-0.17326544","","","",""
"1923","4.2210765","6.038286","7.0860476","1.1350572","0.032603115","-0.21907178","-36.186024","-4.693721","-31.09137",""
"1925","4.30723","6.300249","7.3977675","1.1457098","0.040059943","-0.27233493","","","",""
"1928","4.5609055","6.6003156","7.737826","1.1584929","0.0613652","-0.3287939","","","",""
"1930","4.742786","6.9003816","8.1015","1.178733","0.0933231","-0.39484024","","","",""
"1933","4.790648","6.9527745","8.502956","1.2053646","0.13486835","-0.46727818","-36.24331","-4.326028","-30.950092",""
"1935","4.7332106","6.6908126","8.979982","1.227735","0.18813151","-0.53438973","","","",""
"1938","4.6470556","6.4097986","9.371993","1.2543666","0.2573736","-0.5801961","","","",""
"1940","4.5896177","6.3716955","9.683713","1.2852594","0.3340726","-0.61534977","","","",""
"1943","4.603976","6.1859407","10.174909","1.320413","0.408641","-0.65050346","-36.280155","-5.413821","-31.342667",""
"1945","4.551325","6.019238","10.633042","1.3619583","0.5002537","-0.68352664","","","",""
"1948","4.479529","5.9335055","10.982546","1.4077647","0.59932315","-0.709093","","","",""
"1950","4.364655","5.823958","11.261205","1.4652889","0.69093585","-0.7250719","","","",""
"1953","4.2449956","5.8525357","11.572925","1.5238783","0.7740264","-0.7346593","-35.79525","-6.5398264","-31.813408",""
"1955","4.096617","5.9287434","11.9507675","1.5867289","0.8507253","-0.7431814","","","",""
"1957","","","","","","","","","",""
"1958","4.0391803","6.0430546","12.271932","1.6538405","0.9242285","-0.7453119","","","",""
"1960","3.8668704","6.0954475","12.659221","1.720952","0.99027485","-0.74424666","","","",""
"1963","3.7232792","6.185944","13.103186","1.7955205","1.0541906","-0.73572457","-35.48829","-6.568647","-31.551086",""
"1965","3.5078926","6.328833","13.622719","1.8690237","1.1106496","-0.713354","","","",""
"1968","3.172847","6.443145","14.071406","1.946788","1.164978","-0.6813961","","","",""
"1970","2.6798522","6.752737","14.586217","2.0341396","1.2235674","-0.6409161","","","",""
"1973","2.0959167","7.186167","15.086858","2.1236217","1.2736348","-0.5908487","-35.434048","-6.9392858","-31.537756",""
"1975","1.4545449","7.891084","15.497761","2.2120385","1.3173106","-0.5322592","","","",""
"1978","0.77009606","8.886541","15.993678","2.3015208","1.3492686","-0.46940863","","","",""
"1980","-0.1153795","9.877235","16.343184","2.3941987","1.3844222","-0.40229705","","","",""
"1983","-0.90034163","11.029873","16.550997","2.4751587","1.4142495","-0.3309244","","","",""
"1984","","","","","","","-35.16089","-8.052952","-31.822622",""
"1985","-1.426841","12.1063","16.272339","2.532683","1.4312938","-0.2520949","","","",""
"1986","","","","","","","","","","45.33217"
"1988","-1.7762456","12.954105","15.766973","2.5465314","1.4089233","-0.16900432","","","",""
"1990","-2.029923","13.57329","14.897935","2.5156386","1.3290284","-0.0699348","","","",""
"1993","-2.3841138","13.816202","13.669947","2.4613101","1.1202368","0.062157873","","","",""
"1994","","","","","","","-34.7031","-8.993639","-32.300026",""
"1995","-2.0682158","14.92597","13.055952","2.3707628","0.7793524","0.22833899","","","",""
"1997","","","","","","","","","",""
"1998","-1.0008614","16.18339","12.423066","2.205647","0.34472486","0.38706324","","","",""
"2000","0.53555536","17.521782","12.687555","1.9787457","-0.20282058","0.52022123","","","",""
"2003","2.6559064","18.950668","13.972219","1.7060382","-0.8228039","0.60970336","","","",""
"2004","","","","","","","-34.355755","-9.932575","-32.452583",""
"2005","4.83848","20.079489","16.451813","1.4077646","-1.4694189","0.65337914","","","",""
"2008","7.1167803","20.936821","19.795717","1.110556","-2.1213603","0.67148864","","","",""
"2010","9.433372","21.865597","24.235367","0.85702324","-2.7701058","0.6725539","","","",""
"2013","12.013212","22.789612","28.958397","0.6588842","-3.3943503","0.6501834","","","",""
"2014","","","","","","","-34.525436","-10.302658","-31.634937",""
"2015","14.808438","23.25638","34.323757","0.5267916","-4.0036807","0.6011812","","","",""
"2018","17.713753","23.327826","40.0339","0.48205054","-4.58638","0.5170254","","","",""
"2020","20.633423","22.961077","45.975475","0.5289221","-5.113686","0.40517274","","","",""
"2023","23.490871","22.341894","52.257107","0.68125474","-5.557901","0.2698843","","","",""
"2024","","","","","","","-35.87118","-9.666771","-30.848894",""
"2025","26.262165","21.579823","58.642647","0.9433096","-5.881741","0.10796423","","","",""
"2028","28.669699","20.698677","64.63617","1.3054992","-6.05964","-0.083783194","","","",""
"2030","30.8427","19.665115","69.793724","1.7486489","-6.0841413","-0.2915096","","","",""
"2032","32.68544","18.36959","73.940544","2.2471921","-5.9573746","-0.499236","","","",""
"2034","","","","","","","-38.047874","-9.915209","-28.497343",""
"2035","33.882027","17.135988","76.77908","2.780889","-5.7017117","-0.69630975","","","",""
"2037","34.504253","15.692812","78.41326","3.3209777","-5.339522","-0.8699477","","","",""
"2040","34.719635","14.306793","79.013084","3.839761","-4.9016986","-1.0084319","","","",""
"2042","34.5569","13.058899","78.80054","4.3180647","-4.397829","-1.1192193","","","",""
"2044","","","","","","","-39.7319","-10.756067","-25.879108",""
"2045","34.260147","11.853874","77.77092","4.743105","-3.8300433","-1.1980488","","","",""
"2047","33.86288","10.791735","76.0423","5.1052947","-3.2121904","-1.2470509","","","",""
"2050","33.42253","9.848671","73.73746","5.395046","-2.5655754","-1.267291","","","",""
"2052","33.04441","9.062784","71.03116","5.619817","-1.8955246","-1.2683562","","","",""
"2054","","","","","","","-40.663067","-12.3663845","-24.255676",""
"2055","32.695007","8.3673935","67.99897","5.781737","-1.2105602","-1.2651604","","","",""
"2057","32.23073","7.624373","64.574776","5.8861327","-0.51707363","-1.259834","","","",""
"2060","31.799957","6.976611","60.678265","5.944722","0.14019391","-1.2587688","","","",""
"2062","31.2926","6.4812646","56.607014","5.9692235","0.74100256","-1.2608993","","","",""
"2064","","","","","","","-40.50867","-14.435552","-22.156801",""
"2065","30.699093","6.128806","52.47436","5.9596357","1.2725691","-1.2779436","","","",""
"2067","29.832764","5.9621034","48.41728","5.923417","1.729567","-1.3141625","","","",""
"2070","28.794125","5.7572966","44.49716","5.8733497","2.1098661","-1.3642299","","","",""
"2072","27.520958","5.5143867","40.42591","5.809434","2.4028137","-1.4206889","","","",""
"2074","","","","","","","-39.74615","-16.356419","-20.62222",""
"2075","26.10898","5.304817","36.43495","5.742322","2.6073442","-1.4952574","","","",""
"2077","24.539057","5.042855","32.81238","5.6762757","2.7309146","-1.5719563","","","",""
"2080","22.79204","4.685634","29.430695","5.603838","2.7788515","-1.6507858","","","",""
"2082","20.939722","4.2998347","26.26154","5.5228777","2.780982","-1.7221584","","","",""
"2084","","","","","","","-38.758354","-18.80259","-21.093204",""
"2085","19.010824","3.8425915","23.257692","5.433396","2.7426324","-1.793531","","","",""
"2087","17.062778","3.366297","20.414427","5.3311305","2.668064","-1.8478594","","","",""
"2090","15.172169","2.9519203","17.689238","5.219278","2.5647335","-1.8915353","","","",""
"2092","13.425151","2.4851513","15.101016","5.092511","2.429445","-1.914971","","","",""
"2094","","","","","","","-37.83806","-20.153322","-21.155983",""
"2095","11.7690735","2.1755595","12.810347","4.9508314","2.2728512","-1.9234931","","","",""
"2097","10.227868","1.8850199","10.699151","4.7942376","2.1034744","-1.9213626","","","",""
"2100","8.787176","1.5659025","8.847722","4.629122","1.9202491","-1.906449","","","",""
"2102","7.4996476","1.3229922","7.166323","4.452288","1.738089","-1.874491","","","",""
"2104","","","","","","","-36.94516","-21.530571","-19.82727",""
"2105","6.470582","1.070556","5.6455073","4.262671","1.5495373","-1.8361416","","","",""
"2107","5.570748","0.808594","4.445857","4.0687933","1.3513982","-1.7860742","","","",""
"2110","4.8336487","0.38945457","3.3642828","3.8706536","1.1447371","-1.7296152","","","",""
"2112","4.1013365","0.04652226","2.5377522","3.6757104","0.9412718","-1.6699604","","","",""
"2114","","","","","","","-36.30803","-23.252583","-18.592937",""
"2115","3.5174007","-0.29164708","2.1410174","3.4871588","0.7495243","-1.5985878","","","",""
"2117","2.957397","-0.54884607","1.9473729","3.3124557","0.57375586","-1.5272151","","","",""
"2120","2.517052","-0.6822084","1.7395593","3.1462746","0.42035782","-1.4601035","","","",""
"2122","2.1389294","-0.82033366","1.4939615","2.9832892","0.29252622","-1.3961877","","","",""
"2124","","","","","","","-36.14531","-24.364502","-18.552952",""
"2125","1.7990974","-0.9203552","1.2625328","2.8352175","0.17747775","-1.329076","","","",""
"2127","1.478411","-1.1680285","1.0641654","2.6924722","0.07840823","-1.2715518","","","",""
"2130","1.2917424","-1.4014127","0.73355275","2.5518575","-0.008943406","-1.2182887","","","",""
"2132","1.1532699","-1.849262","0.35577878","2.4144392","-0.093094595","-1.1639609","","","",""
"2134","","","","","","","-35.672577","-25.502293","-18.40525",""
"2135","0.9570292","-2.2826908","0.17158052","2.280216","-0.16766305","-1.1106977","","","",""
"2137","0.79429317","-2.8161416","0.025166493","2.1502538","-0.23264413","-1.0563693","","","",""
"2139","0.62677073","-3.2114663","0.0015512891","2.0245526","-0.28697258","-1.0041715","","","",""
"2142","0.46882102","-3.6353693","-0.16375485","1.908439","-0.33171365","-0.9636915","","","",""
"2144","0.2917259","-4.0878496","-0.24876943","1.8008474","-0.36260632","-0.9221462","-35.027397","-26.478886","-17.831654",""
"2147","0.042835534","-4.5355673","-0.4518598","1.7039084","-0.3945642","-0.87420934","","","",""
"2149","-0.13904592","-4.9928107","-0.480198","1.6186874","-0.4243916","-0.8262725","","","",""
"2152","-0.38793632","-5.511973","-0.49436718","1.5430536","-0.45102316","-0.77194405","","","",""
"2154","-0.63204026","-5.935876","-0.53687453","1.4802032","-0.47232845","-0.71015877","-34.69223","-27.429604","-17.365765",""
"2157","-0.8713579","-6.3931193","-0.5227055","1.4343967","-0.49043792","-0.64517766","","","",""
"2159","-1.1537527","-6.717","-0.47547522","1.4045694","-0.4968295","-0.5748703","","","",""
"2162","-1.3260615","-7.0551696","-0.31016916","1.38646","-0.4968295","-0.5066934","","","",""
"2164","-1.5462339","-7.412391","-0.31016922","1.3821989","-0.47872007","-0.43532076","-34.91615","-27.429049","-16.561447",""
"2167","-1.8717058","-7.817242","-0.44713718","1.3928515","-0.44463164","-0.35436076","","","",""
"2169","-2.1780322","-8.08873","-0.70690393","1.4194831","-0.39776003","-0.2723354","","","",""
"2172","-2.532222","-8.155411","-1.174484","1.4620937","-0.35301897","-0.18711436","","","",""
"2174","-2.843335","-8.198278","-1.6798483","1.512161","-0.31573474","-0.100828","-34.92528","-27.437887","-16.097618",""
"2177","-3.101798","-8.112545","-2.3221807","1.5707505","-0.2880379","-0.02412903","","","",""
"2179","-3.3841927","-7.9172635","-3.0684195","1.6378621","-0.26140633","0.05150468","","","",""
"2182","-3.604365","-7.731508","-3.8099353","1.7071042","-0.25181895","0.12500785","","","",""
"2184","-3.8245373","-7.5267015","-4.622297","1.7774117","-0.24755788","0.19638051","-34.901203","-27.626152","-15.936342",""
"2187","-4.063855","-7.255213","-5.5810723","1.8466538","-0.26034108","0.2581658","","","",""
"2189","-4.3031726","-7.0170646","-6.5587397","1.9105695","-0.28058106","0.3146248","","","",""
"2192","-4.499413","-6.7122355","-7.498623","1.9691591","-0.31786528","0.36788794","","","",""
"2194","-4.6669354","-6.3121476","-8.466844","2.0170958","-0.36260638","0.40517217","-35.39888","-27.776203","-15.696904",""
"2197","-4.872749","-6.0025554","-9.288651","2.0565107","-0.39989057","0.4360648","","","",""
"2199","-5.2173657","-5.73583","-10.167135","2.0842075","-0.43824008","0.4573701","","","",""
"2202","-5.557197","-5.611993","-10.998388","2.0969906","-0.4765896","0.47441432","","","",""
"2204","-5.7151465","-5.054727","-11.735183","2.0969906","-0.51174325","0.48719746","-35.27241","-28.71164","-15.199751",""
"2207","-5.9353194","-4.6070094","-12.429468","2.078881","-0.5437011","0.49465433","","","",""
"2209","-6.059764","-4.2926545","-13.218214","2.0490537","-0.5745938","0.489328","","","",""
"2212","-6.141133","-4.0164027","-14.040022","2.0032475","-0.5969643","0.4776101","","","",""
"2214","-6.323014","-3.8639882","-14.970459","1.9393317","-0.6225307","0.4595006","-35.126","-29.101704","-14.583612",""
"2217","-6.6149817","-3.7496772","-15.839495","1.8509148","-0.6598149","0.44139114","","","",""
"2219","-6.8925896","-3.659181","-16.784101","1.7369317","-0.7152086","0.4307385","","","",""
"2222","-7.1606255","-3.7496772","-17.379204","1.6016432","-0.78764653","0.42328167","","","",""
"2224","-7.5148153","-3.9020915","-17.790106","1.4386579","-0.84836656","0.41262904","-35.436283","-29.28766","-13.293169",""
"2227","-7.816356","-3.9640098","-18.177397","1.2586284","-0.89523816","0.40091112","","","",""
"2229","-8.041315","-4.164054","-18.427717","1.0615546","-0.93891394","0.3955848","","","",""
"2232","-8.160974","-4.3831496","-18.630808","0.83891445","-0.97087187","0.39451954","","","",""
"2234","-8.2088375","-4.5879564","-18.564686","0.59390384","-0.99430764","0.39238903","-35.79776","-29.100037","-12.170665",""
"2237","-8.294992","-4.802289","-18.564686","0.3297185","-1.0166782","0.39345428","","","",""
"2239","-8.452942","-5.002333","-18.375763","0.046358403","-1.0273309","0.39771533","","","",""
"2242","-8.682686","-5.2690587","-18.068768","-0.2487196","-1.0305266","0.40304166","","","",""
"2244","-8.960296","-5.4929175","-17.596464","-0.5544503","-1.0166782","0.4158248","-36.147068","-28.900627","-11.6666",""
"2247","-9.170895","-5.659621","-16.96358","-0.86124617","-0.9825898","0.43286902","","","",""
"2249","-9.4389305","-5.7453537","-16.184278","-1.1712378","-0.9378487","0.4573701","","","",""
"2251","-9.606452","-6.002553","-15.348303","-1.4759032","-0.8792592","0.49145854","","","",""
"2254","-9.812266","-6.221649","-14.290343","-1.7688506","-0.7951034","0.5266122","-36.78339","-28.127028","-11.305874",""
"2256","-9.965429","-6.397878","-13.298508","-2.0458193","-0.6970992","0.5713533","","","",""
"2259","-10.065944","-6.4740853","-12.245271","-2.2982867","-0.5916381","0.626747","","","",""
"2261","-10.046798","-6.4645596","-11.343172","-2.5347753","-0.47978544","0.68959755","","","",""
"2264","-9.869704","-6.4788485","-10.719732","-2.7574153","-0.36899802","0.75457865","-36.575775","-27.405731","-11.534042",""
"2266","-9.5203","-6.564581","-10.001831","-2.966207","-0.26460224","0.81636393","","","",""
"2269","-9.36235","-6.645551","-9.128071","-3.1547587","-0.16766323","0.8781492","","","",""
"2271","-9.1996155","-6.645551","-8.273202","-3.3273313","-0.07285478","0.9367387","","","",""
"2274","-9.070385","-6.57887","-7.560024","-3.476468","0.011301033","0.99958926","-36.933933","-27.00333","-11.964302",""
"2276","-8.89329","-6.512188","-6.818508","-3.6085608","0.084804215","1.059244","","","",""
"2277","","","","","","","","","",""
"2279","-8.78799","-6.3740625","-6.171453","-3.7214787","0.14019792","1.115703","","","",""
"2281","-8.615683","-6.212122","-5.571628","-3.8162873","0.19346109","1.1732272","","","",""
"2284","-8.414656","-5.9644485","-4.971803","-3.891921","0.23607162","1.2296861","-37.313126","-26.409712","-12.710449",""
"2286","-8.247133","-5.816797","-4.3341947","-3.9473147","0.26483375","1.2840146","","","","36.153095"
"2289","-8.022175","-5.7167745","-3.861891","-3.9845989","0.28400844","1.338343","","","",""
"2291","-7.739781","-5.6215153","-3.2998505","-4.002708","0.28933477","1.3926715","","","",""
"2294","-7.4143095","-5.4595747","-2.8417165","-4.0059037","0.29359582","1.4480652","-37.370132","-25.830185","-13.967323",""
"2296","-7.1223416","-5.3595524","-2.454428","-3.9963167","0.28187793","1.5002631","","","",""
"2299","-6.787298","-5.188086","-2.175769","-3.9718158","0.2563116","1.5513958","","","",""
"2301","-6.423536","-4.9547014","-1.7223582","-3.9334662","0.22648424","1.604659","","","",""
"2304","-6.0789194","-4.7498937","-1.5381601","-3.8897903","0.18493894","1.6494","-37.90292","-24.115816","-15.217288",""
"2306","-5.719943","-4.4831686","-1.3728541","-3.839723","0.13487156","1.68988","","","",""
"2309","-5.303531","-4.2116804","-1.1414255","-3.7853947","0.08267364","1.7218379","","","",""
"2311","-4.882333","-4.030688","-1.0894723","-3.7289357","0.020888353","1.7516654","","","",""
"2314","-4.4324164","-3.8306437","-1.0139039","-3.6714113","-0.05048431","1.7804275","-37.704155","-23.191525","-16.37978",""
"2316","-3.9824998","-3.6305997","-0.9808428","-3.621344","-0.12505277","1.8049284","","","",""
"2317","","","","","","","","","",""
"2319","-3.5708742","-3.4496074","-0.8344288","-3.5712767","-0.19642542","1.8262337","","","",""
"2321","-3.1736073","-3.2305114","-0.8202598","-3.5307965","-0.2646023","1.8390169","","","",""
"2324","-2.776341","-3.03523","-0.67384595","-3.4977734","-0.33384442","1.8486043","-38.127373","-22.955013","-17.406183",""
"2326","-2.3216379","-2.7732675","-0.6691229","-3.472207","-0.39776024","1.8539306","","","",""
"2329","-1.7999265","-2.411283","-0.8533212","-3.4530323","-0.4723287","1.8518001","","","",""
"2331","-1.488814","-2.3160238","-0.37629503","-3.4381187","-0.54263604","1.8432779","","","",""
"2334","-1.0867611","-2.182661","-0.4140794","-3.4359882","-0.59163815","1.8283643","-38.874947","-21.231249","-18.315662",""
"2336","-0.6655626","-2.063587","-0.2440503","-3.4381187","-0.64490134","1.8102548","","","",""
"2339","-0.26829603","-1.9635646","-0.03623702","-3.4509017","-0.6949687","1.7942759","","","",""
"2341","0.15290245","-1.7016023","0.1526842","-3.4743376","-0.7450361","1.7697748","","","",""
"2344","0.425724","-1.5968171","0.44551206","-3.5020344","-0.7993646","1.7399474","-39.333538","-19.342148","-19.433313",""
"2346","0.76076806","-1.5587136","1.1350746","-3.5318618","-0.86221516","1.7165116","","","",""
"2349","1.1723938","-1.4348767","1.9285437","-3.5563629","-0.90908676","1.6888148","","","",""
"2351","1.5696603","-1.3729582","2.736182","-3.5702114","-0.930392","1.6440737","","","",""
"2354","1.8807727","-1.4348764","3.770526","-3.5691462","-0.92719626","1.604659","-39.937737","-18.011396","-19.572044",""
"2356","2.0578675","-1.4348763","4.677347","-3.5521019","-0.9026952","1.5673747","","","",""
"2357","","","","","","","","","",""
"2358","2.258894","-1.4253503","5.4235864","-3.5190787","-0.849432","1.5300905","","","",""
"2361","2.4790657","-1.3729578","6.2265015","-3.4807293","-0.7823204","1.4970673","","","",""
"2363","2.7040238","-1.2491208","6.8641105","-3.430662","-0.70881724","1.4704357","","","",""
"2364","","","","","","","-40.554115","-16.692429","-19.092335",""
"2366","2.900264","-1.125284","7.331691","-3.3731377","-0.62040037","1.4363472","","","",""
"2368","3.029495","-0.9966841","7.898454","-3.3070912","-0.5255919","1.4011936","","","",""
"2371","3.2065897","-0.78711396","8.432157","-3.2325227","-0.4211961","1.3649746","","","",""
"2373","3.29753","-0.59183276","8.7486","-3.1494322","-0.31360447","1.3276904","","","",""
"2374","","","","","","","-40.812054","-15.564032","-19.58052",""
"2376","3.3645387","-0.33939618","9.178396","-3.051428","-0.21027392","1.2808188","","","",""
"2378","3.4267607","-0.17745566","9.542069","-2.941706","-0.09842125","1.237143","","","",""
"2381","3.4506927","-0.025040984","9.688483","-2.8319838","0.017692467","1.1987935","","","",""
"2383","3.4363332","0.027351558","9.952973","-2.71587","0.13380618","1.1615094","","","",""
"2384","","","","","","","-40.673622","-14.274996","-20.44712",""
"2386","3.4459054","0.089270085","10.170232","-2.6050825","0.2648336","1.1338125","","","",""
"2388","3.4985552","0.23692173","10.137171","-2.5081437","0.416101","1.1167684","","","",""
"2391","3.5751364","0.35599566","10.189123","-2.4112046","0.56736845","1.1007894","","","",""
"2393","3.6995811","0.6036694","9.867958","-2.2982867","0.7015916","1.0677662","","","",""
"2394","","","","","","","-40.678837","-12.804781","-20.686314",""
"2396","3.824026","0.8989727","9.749882","-2.1587372","0.7974653","1.0145031","","","",""
"2397","","","","","","","","","",""
"2398","3.895821","1.1799871","9.693205","-2.0010781","0.8794906","0.9516524","","","",""
"2401","4.0872746","1.5276828","9.338978","-1.8338318","0.93381906","0.87921447","","","",""
"2403","4.1830015","1.7515417","8.994196","-1.656998","0.9679075","0.81316817","","","",""
"2404","","","","","","","-40.661667","-12.050525","-21.810875",""
"2406","4.2930875","1.8849044","8.729707","-1.4759033","0.98708224","0.7577744","","","",""
"2408","4.369668","1.9896895","8.252681","-1.2980043","1.0009307","0.7087723","","","",""
"2411","4.4941134","2.0135045","7.837054","-1.1254315","1.0030612","0.66935754","","","",""
"2413","4.7142854","2.0420823","7.383643","-0.95925045","0.9998654","0.6363344","","","",""
"2414","","","","","","","-40.516056","-11.492176","-22.789797",""
"2416","5.0110383","2.1421044","6.887725","-0.8069178","0.9892128","0.5979849","","","",""
"2418","5.312578","2.4231188","6.495713","-0.66204196","0.98708224","0.5447217","","","",""
"2421","5.5949726","2.8708365","5.900611","-0.5224924","0.97642964","0.4722838","","","",""
"2423","5.87258","3.232821","5.376354","-0.38826916","0.9593854","0.3796059","","","",""
"2424","","","","","","","-40.766827","-11.094468","-23.390299",""
"2426","6.064034","3.6471982","4.970174","-0.26043752","0.9370149","0.27201426","","","",""
"2428","6.1118975","3.880583","4.526209","-0.14219327","0.9167748","0.1516395","","","",""
"2431","6.073606","4.071101","4.1483665","-0.035666935","0.9007959","0.030199463","","","",""
"2433","5.9778786","4.175886","3.751632","0.065533094","0.88907796","-0.084849","","","",""
"2434","","","","","","","-40.614323","-11.4786415","-23.083384",""
"2436","5.7529206","4.199702","3.458804","0.1560805","0.8880127","-0.19137534","","","","58.363987"
"2437","","","","","","","","","",""
"2438","5.4944572","4.2473307","3.0998538","0.23597527","0.89760005","-0.29151013","","","",""
"2441","5.259926","4.1854124","2.7645183","0.30521742","0.9189053","-0.3831228","","","",""
"2443","5.030181","4.175887","2.5378127","0.3659374","0.95086324","-0.46727863","","","",""
"2444","","","","","","","-40.209095","-11.520996","-22.527477",""
"2446","4.762145","4.280672","2.282769","0.41387427","0.9966696","-0.5450429","","","",""
"2448","4.4462457","4.3759313","2.141078","0.45648482","1.0552591","-0.61535025","","","",""
"2451","4.1494923","4.5664496","1.985218","0.48737746","1.1255664","-0.6899187","","","",""
"2453","3.8479524","4.7379155","1.9616028","0.5118785","1.2214401","-0.76235664","","","",""
"2454","","","","","","","-40.20105","-10.7755785","-23.188208",""
"2456","3.5655575","4.9522486","1.9096495","0.5257269","1.3311622","-0.8358598","","","",""
"2458","3.235299","5.1380043","1.7632354","0.53957534","1.4589939","-0.9008409","","","",""
"2461","2.8763227","5.476174","1.7018359","0.5512932","1.6060003","-0.9636914","","","",""
"2463","2.4359784","5.933418","1.6073753","0.55875003","1.7647245","-1.0233461","","","",""
"2464","","","","","","","-39.966908","-11.503876","-24.25945",""
"2465","1.9477707","6.371609","1.3901159","0.5672722","1.9298403","-1.0819355","","","",""
"2468","1.4595629","6.957453","1.0878419","0.5811206","2.1066742","-1.136264","","","",""
"2470","1.024005","7.609978","0.6155386","0.59496903","2.2707248","-1.1895272","","","",""
"2473","0.5836607","8.314896","0.06766695","0.60029536","2.4283838","-1.2470514","","","",""
"2474","","","","","","","-39.061554","-12.657509","-24.947336",""
"2475","0.1528891","9.053152","-0.6360647","0.60029536","2.5658028","-1.3045757","","","",""
"2477","","","","","","","","","",""
"2478","-0.2013009","9.734255","-1.3539655","0.59496903","2.675525","-1.3642304","","","",""
"2480","-0.42147315","10.362965","-2.0765893","0.57899004","2.7596807","-1.427081","","","",""
"2483","-0.5698502","10.915468","-2.808659","0.554489","2.800161","-1.4963231","","","",""
"2484","","","","","","","-38.119358","-12.723347","-25.24264",""
"2485","-0.8187405","11.472734","-3.5123909","0.52466166","2.8054872","-1.5698262","","","",""
"2488","-1.0389128","11.991896","-4.1074924","0.49376902","2.776725","-1.6486558","","","",""
"2490","-1.2830169","12.35388","-4.6978717","0.453289","2.712809","-1.7274853","","","",""
"2493","-1.5941298","12.720629","-5.1985135","0.41174373","2.611609","-1.8009884","","","",""
"2494","","","","","","","-36.82068","-13.719284","-26.154327",""
"2495","-1.9004562","12.920671","-5.7086005","0.3574153","2.4635372","-1.8659695","","","",""
"2498","-2.1349876","12.920671","-6.0911665","0.28710788","2.2611372","-1.9181675","","","",""
"2500","-2.264219","12.849228","-6.34621","0.20295207","2.0108004","-1.9554516","","","",""
"2503","-2.2785783","12.558689","-6.360379","0.09749099","1.7050698","-1.981018","","","",""
"2505","-2.091911","12.082394","-6.067551","-0.027144847","1.3482065","-1.9863443","-35.51178","-15.442965","-27.332949",""
"2508","-1.6994307","11.648964","-5.4960647","-0.16456383","0.95512426","-1.9724959","","","",""
"2510","-1.1154965","11.329847","-4.6223035","-0.31583127","0.52262723","-1.9394727","","","",""
"2513","-0.40711722","11.167906","-3.2904088","-0.47668606","0.044323873","-1.8936664","","","",""
"2515","0.5022887","11.163143","-1.3870274","-0.6375409","-0.4531542","-1.8467947","-35.470524","-14.876972","-28.296234",""
"2517","","","","","","","","","",""
"2518","1.6222937","11.2631645","1.125625","-0.7856125","-0.96341544","-1.80738","","","",""
"2520","2.8140943","11.553705","4.2664404","-0.9070525","-1.4598281","-1.7775526","","","",""
"2523","4.015467","11.972845","8.110988","-0.9933389","-1.9328052","-1.7615737","","","",""
"2525","5.2216268","12.773022","12.484514","-1.0359495","-2.3461275","-1.7615737","-35.461395","-14.868134","-28.760065",""
"2528","6.2459054","14.044731","17.467312","-1.0199705","-2.6699677","-1.7700958","","","",""
"2530","6.9686437","15.568876","22.459557","-0.9539241","-2.897934","-1.8009884","","","",""
"2533","7.724886","17.178755","27.239264","-0.844202","-3.0545278","-1.843599","","","",""
"2535","8.380615","18.73624","32.3118","-0.68547773","-3.1589236","-1.8989927","-35.967117","-15.763603","-27.859894",""
"2538","8.734805","20.388987","37.648823","-0.46922922","-3.1749027","-1.965039","","","",""
"2540","8.797028","21.984575","42.900833","-0.20504385","-3.0790288","-2.024694","","","",""
"2543","8.528991","23.50872","47.581356","0.11346993","-2.8755636","-2.076892","","","",""
"2545","8.050356","24.718512","51.17086","0.4799206","-2.5730286","-2.1109803","-36.43795","-16.310808","-26.215635",""
"2548","7.586081","25.504398","53.220654","0.88045967","-2.222557","-2.1131108","","","",""
"2550","7.423344","25.60442","53.456806","1.2809987","-1.89126","-2.076892","","","",""
"2553","7.696166","24.932844","52.129635","1.6357315","-1.6526409","-1.992736","","","",""
"2555","8.701299","23.503958","49.72561","1.8999169","-1.5535715","-1.8467947","-36.517143","-17.22801","-25.841825",""
"2557","","","","","","","","","",""
"2558","10.338229","21.836924","47.21296","2.041597","-1.616422","-1.661439","","","",""
"2560","12.602172","20.317541","45.479607","2.0479884","-1.8124305","-1.435603","","","",""
"2563","15.330389","19.174433","44.964794","1.9201568","-2.0712895","-1.1980493","","","",""
"2565","18.522884","18.440939","45.498497","1.6889946","-2.3418665","-0.974344","-36.70068","-18.137571","-25.452385",""
"2568","22.021706","17.764599","47.331036","1.3694156","-2.5730286","-0.7900534","","","",""
"2570","25.353003","17.583607","50.901646","0.99124706","-2.708317","-0.63878596","","","",""
"2573","28.277462","18.236134","55.671906","0.6034911","-2.6816854","-0.5354554","","","",""
"2575","30.890808","19.174433","60.612194","0.23171417","-2.4366748","-0.49177966","-37.221622","-19.047771","-23.779163",""
"2577","33.43236","20.122263","65.09909","-0.09745226","-2.0031128","-0.5024322","","","",""
"2580","36.170147","20.741446","69.056984","-0.36270285","-1.4534367","-0.5770007","","","",""
"2582","38.86965","20.927202","73.081","-0.53847134","-0.8462365","-0.7229418","","","",""
"2585","40.879917","20.498535","77.10031","-0.59493035","-0.18044682","-0.94132084","-37.696587","-18.861341","-22.177197",""
"2586","","","","","","","","","","51.602184"
"2587","41.88026","19.174433","80.73704","-0.51503557","0.56310713","-1.221485","","","",""
"2590","41.71752","17.026342","83.14106","-0.2955913","1.3599242","-1.5261505","","","",""
"2592","40.310337","14.211437","84.27931","0.048488844","2.2025478","-1.8244243","","","",""
"2595","37.677845","11.144094","83.83062","0.4905732","3.0718026","-2.0822182","-37.05526","-18.892467","-23.044044",""
"2597","34.102444","8.119619","81.52579","1.0050955","3.9272094","-2.276096","","","",""
"2600","30.000544","5.499994","77.43564","1.5515757","4.717634","-2.3772962","","","",""
"2602","25.597103","3.3423762","72.14112","2.0884686","5.371706","-2.380492","","","",""
"2605","21.107508","1.5515056","66.52072","2.5934033","5.874511","-2.283553","-35.625114","-20.081366","-23.9647",""
"2607","16.881163","-0.14886889","60.749165","3.0578582","6.2335043","-2.093936","","","",""
"2610","13.243537","-1.7063546","54.949284","3.4711804","6.4529486","-1.8169674","","","",""
"2612","10.228138","-3.1257148","49.328876","3.8344355","6.5317783","-1.4728873","","","",""
"2615","7.887614","-4.268824","44.08631","4.159341","6.469993","-1.079805","-34.183064","-21.470314","-24.105642",""
"2617","6.2363234","-5.0785255","39.183804","4.467202","6.2825065","-0.66541755","","","",""
"2620","5.0780277","-5.4214582","34.668587","4.7612147","5.979972","-0.24463849","","","",""
"2622","4.283493","-5.240466","30.540659","5.047771","5.564519","0.16229217","","","",""
"2625","3.8048582","-4.621282","26.431623","5.3343267","5.054258","0.54898286","-32.355457","-23.235155","-25.207811",""
"2627","3.570327","-3.7972908","22.459555","5.611295","4.4545145","0.8951935","","","",""
"2630","3.4937449","-2.939959","18.652792","5.8882637","3.768485","1.2019894","","","",""
"2632","3.5798988","-2.092153","15.181363","6.160971","3.0036259","1.4725664","","","",""
"2635","3.8287888","-1.1538512","12.106669","6.4198303","2.171655","1.701598","-30.981506","-24.792942","-25.790287",""
"2637","4.149474","-0.3489118","9.4664955","6.66271","1.2960083","1.891215","","","",""
"2640","4.675972","0.4226869","7.2183323","6.8906765","0.4139701","2.041417","","","",""
"2642","5.2216153","1.0942633","5.343289","7.090946","-0.4616765","2.154335","","","",""
"2645","5.6476","1.7515512","3.7752428","7.272041","-1.3043","2.2342296","-31.647781","-26.049656","-24.5363",""
"2647","6.154953","2.294528","2.452794","7.4233084","-2.0957906","2.2821665","","","",""
"2650","6.676664","2.8136902","1.6215405","7.5372915","-2.8095171","2.304537","","","",""
"2652","7.198376","3.370956","1.0500538","7.606534","-3.4305658","2.313059","","","",""
"2655","7.74402","3.8472514","0.37466028","7.6321","-3.9461534","2.3013413","-32.890324","-27.109354","-21.819323",""
"2657","8.313595","4.342599","-0.09291986","7.6171865","-4.358411","2.271514","","","",""
"2660","8.931033","4.7188716","-0.48965448","7.5490093","-4.651358","2.2171855","","","",""
"2662","9.500608","5.0475163","-1.0611413","7.4297","-4.838845","2.1447475","","","",""
"2665","10.00796","5.228508","-1.5476135","7.2581925","-4.9272614","2.0478086","-33.67753","-27.848406","-18.5754",""
"2667","10.539245","5.342819","-2.1616075","7.037683","-4.9198046","1.9327602","","","",""
"2670","10.955658","5.357108","-2.8747852","6.7639103","-4.831388","1.8006675","","","",""
"2672","11.113606","5.285664","-3.432103","6.4379396","-4.6769247","1.6525959","","","",""
"2675","11.180615","5.2475605","-4.1830654","6.077881","-4.4617414","1.4970675","-35.2616","-28.175106","-14.616936",""
"2677","10.9987335","5.1618276","-4.678984","5.680537","-4.2082086","1.3383431","","","",""
"2680","10.745056","4.837947","-5.089887","5.2501707","-3.8918252","1.1636399","","","",""
"2682","10.472236","4.4045177","-5.5905285","4.80276","-3.5328314","0.97828406","","","",""
"2684","10.007958","3.8710668","-5.9730945","4.340436","-3.14401","0.796124","","","",""
"2685","","","","","","","-36.499413","-28.704163","-11.007927",""
"2687","9.400092","3.4376383","-6.2942605","3.8631976","-2.7434711","0.61609447","","","",""
"2689","8.619917","2.961343","-6.676826","3.3827636","-2.3376057","0.4477828","","","",""
"2692","7.7392297","2.4183667","-6.9790998","2.906591","-1.9296097","0.29225433","","","",""
"2694","6.8729","1.865864","-7.13496","2.4389403","-1.5248095","0.1527048","","","",""
"2695","","","","","","","-36.71035","-29.640236","-9.226994",""
"2697","5.906058","1.2895467","-7.328604","1.9904642","-1.1349231","0.020612145","","","",""
"2699","4.900924","0.6513109","-7.6497707","1.5675546","-0.7567546","-0.08697946","","","",""
"2702","3.9723725","0.0035492778","-7.9189835","1.1616892","-0.40628287","-0.18178794","","","",""
"2704","3.0151026","-0.6156346","-8.136242","0.7781943","-0.0867038","-0.2616827","","","",""
"2705","","","","","","","-36.75878","-29.47554","-8.151387",""
"2707","2.0482602","-1.2872111","-8.339333","0.42452687","0.20943946","-0.31920692","","","",""
"2709","1.0479132","-2.0207057","-8.608546","0.10281725","0.45658058","-0.35968694","","","",""
"2712","0.10500234","-2.735149","-8.972219","-0.18906495","0.6600459","-0.3809922","","","",""
"2714","-0.81397665","-3.34957","-9.463415","-0.44579345","0.81131333","-0.38525328","","","",""
"2715","","","","","","","-36.81302","-29.104902","-8.164716",""
"2717","-1.7138107","-3.8830204","-9.912103","-0.6726946","0.9093176","-0.37353536","","","",""
"2719","-2.5179172","-4.4021826","-10.426914","-0.8729642","0.95192814","-0.34583852","","","",""
"2722","-3.3220239","-4.949922","-10.837817","-1.03808","0.94340605","-0.30642375","","","",""
"2724","-4.03519","-5.4738464","-11.239275","-1.1744337","0.8837513","-0.2563564","","","",""
"2725","","","","","","","-36.72557","-29.654966","-8.453942",""
"2727","-4.695706","-5.883461","-11.598226","-1.2852211","0.77935547","-0.19031003","","","",""
"2729","-5.274854","-6.345467","-11.905222","-1.3693769","0.6291533","-0.118937366","","","",""
"2732","-5.7582755","-6.7598443","-12.212219","-1.4290317","0.42675316","-0.035846815","","","",""
"2734","-6.1411843","-7.1885095","-12.339741","-1.4631201","0.1870689","0.058961637","","","",""
"2735","","","","","","","-36.82079","-29.638485","-8.90214","45.438534"
"2737","-6.4331512","-7.650516","-12.40114","-1.4737728","-0.08989964","0.1622922","","","",""
"2739","-6.4953747","-8.107759","-12.268896","-1.4631201","-0.3892387","0.27201432","","","",""
"2742","-6.495375","-8.460218","-12.098866","-1.4311622","-0.7066872","0.383867","","","",""
"2744","-6.433152","-8.841253","-11.725747","-1.3842906","-1.0177442","0.49252388","","","",""
"2745","","","","","","","-36.761547","-29.266653","-9.394932",""
"2747","-6.246485","-9.06035","-11.324289","-1.3214401","-1.3213443","0.5990502","","","",""
"2749","-6.0598173","-9.274683","-10.95117","-1.252198","-1.6004434","0.69705445","","","",""
"2752","-5.9210143","-9.379467","-10.436359","-1.1744337","-1.853976","0.7854713","","","",""
"2754","-5.796569","-9.393757","-9.95461","-1.1009305","-2.059572","0.8632356","","","",""
"2755","","","","","","","-36.978508","-27.784098","-9.44825",""
"2757","-5.648192","-9.260393","-9.491754","-1.033819","-2.2278836","0.93141246","","","",""
"2759","-5.542893","-9.265158","-8.962775","-0.97522944","-2.3567805","0.98893666","","","",""
"2762","-5.437594","-9.246105","-8.481026","-0.93155366","-2.4249573","1.0390041","","","",""
"2764","-5.370585","-9.208","-7.9992766","-0.90279156","-2.4430668","1.0858757","","","",""
"2765","","","","","","","-37.274654","-27.218748","-9.127758",""
"2767","-5.4040895","-9.146082","-7.5647573","-0.8921389","-2.4089782","1.1252905","","","",""
"2769","-5.528535","-9.036533","-7.1727457","-0.89426947","-2.3248224","1.1583136","","","",""
"2772","-5.691271","-8.674551","-6.912979","-0.9145095","-2.1980562","1.1860105","","","",""
"2774","-5.8827252","-8.203018","-6.6484895","-0.94646734","-2.0414624","1.2094463","","","",""
"2775","","","","","","","-37.828533","-27.737684","-8.550137",""
"2777","-6.107684","-7.4695225","-6.398169","-0.9922737","-1.8507802","1.2147726","","","",""
"2779","-6.370933","-6.674109","-6.1667404","-1.0487328","-1.6260097","1.2094463","","","",""
"2782","-6.72991","-5.8501177","-6.067557","-1.1137137","-1.3746074","1.1913368","","","",""
"2784","-7.112818","-4.9880233","-6.0250497","-1.1786948","-1.1093569","1.167901","","","",""
"2785","","","","","","","-38.148758","-26.984072","-8.390919",""
"2787","-7.4765806","-4.0973506","-6.1289563","-1.247937","-0.81747466","1.1370083","","","",""
"2789","-7.9312835","-3.3162262","-6.398169","-1.3182443","-0.52346194","1.1007894","","","",""
"2791","-8.323765","-2.606546","-6.6721053","-1.3906823","-0.23690608","1.0624399","","","",""
"2794","-8.677956","-2.0159395","-7.031056","-1.4631202","0.043258216","1.0219599","","","",""
"2795","","","","","","","-37.94919","-27.008196","-7.958354",""
"2796","-8.989068","-1.5063034","-7.3049917","-1.5312971","0.3085088","0.9793493","","","",""
"2797","","","","","","","","","",""
"2799","-9.1661625","-1.0585856","-7.616711","-1.5888213","0.55884576","0.9388693","","","",""
