"Timestamp"," Accel x"," Accel y"," Accel z"," Gyro x"," Gyro y"," Gyro z","Mag x","Mag y","Mag z","Light Intensity"
"0","","","","","","","","","","5.620502"
"9095","0.19574732","3.5273042","9.672952","","","","","","",""
"9098","0.15745327","3.5273054","9.68712","","","","","","",""
"9100","0.109586656","3.5415955","9.611551","","","","","","",""
"9103","0.07129267","3.517782","9.569043","","","","","","",""
"9105","0.047357738","3.470154","9.526534","","","","","","",""
"9108","0.01863645","3.4463403","9.507642","","","","","","",""
"9110","-0.024443835","3.398712","9.465135","","","","","","",""
"9113","-0.06273784","3.4082391","9.399012","","","","","","",""
"9115","-0.038809314","3.3463218","9.332888","","","","","","",""
"9118","-0.09624864","3.2939308","9.262042","","","","","","",""
"9120","-0.13932896","3.2748804","9.285657","","","","","","",""
"9123","-0.16805021","3.2510667","9.328163","","","","","","",""
"9125","-0.17283979","3.241542","9.318716","","","","","","",""
"9128","-0.12497947","3.2272546","9.313993","","","","","","",""
"9130","-0.1537008","3.2653594","9.2148075","","","","","","",""
"9133","-0.20156743","3.23202","9.177023","","","","","","",""
"9135","-0.2302887","3.2367845","9.12507","","","","","","",""
"9138","-0.24943727","3.1939187","9.172298","","","","","","",""
"9140","-0.25422683","3.2415497","9.153406","","","","","","",""
"9143","-0.26858905","3.2606025","9.162852","","","","","","",""
"9145","-0.2877376","3.232026","9.247866","","","","","","",""
"9148","-0.30209988","3.189161","9.181743","","","","","","",""
"9150","-0.2638123","3.1986883","9.186465","","","","-15.767429","49.381","-30.94719",""
"9151","","","","","","","","","",""
"9153","-0.29731986","3.2225044","9.177018","","","","","","",""
"9155","-0.34518653","3.1605873","9.210079","","","","","","",""
"9158","-0.34040347","3.1891663","9.238416","","","","","","",""
"9160","-0.3308339","3.1748784","9.214801","","","","-15.45742","49.355125","-30.839478",""
"9163","-0.39305967","3.1748798","9.120339","","","","","","",""
"9165","-0.35955834","3.1129627","9.143953","","","","","","",""
"9168","-0.33562985","3.1272526","9.200629","","","","","","",""
"9170","-0.38349646","3.1653576","9.139229","","","","-15.114203","49.149826","-31.034323",""
"9173","-0.4170041","3.0986776","9.181736","","","","","","",""
"9175","-0.36914378","3.0558121","9.233689","","","","","","",""
"9177","-0.40743777","3.0558136","9.195905","","","","","","",""
"9180","-0.40744096","3.1034443","9.162842","","","","-15.738348","49.93521","-31.292036",""
"9182","-0.42658955","3.1082084","9.162841","-0.078806475","0.060693905","-0.042980958","","","",""
"9185","-0.46488345","3.0462914","9.243132","-0.07880648","0.060693864","-0.039785158","","","",""
"9187","-0.42659593","3.0272412","9.195902","-0.07667596","0.052171707","-0.04404621","","","",""
"9190","-0.42659914","3.0129528","9.29036","-0.07241491","0.043649558","-0.040850412","-15.989391","50.12108","-30.494385",""
"9191","","","","","","","","","",""
"9192","-0.45053405","3.0272436","9.332868","-0.068153866","0.037257932","-0.03658935","","","",""
"9195","-0.4361782","2.9367483","9.299807","-0.06389282","0.029801043","-0.03765461","","","",""
"9197","-0.44096774","3.0272462","9.295082","-0.060697038","0.028735735","-0.03339355","","","",""
"9200","-0.40268016","2.9796176","9.351758","-0.055370726","0.021278845","-0.025936695","-15.613241","49.524525","-29.593628",""
"9202","-0.39789698","2.9177005","9.403711","-0.05324021","0.018083012","-0.022740895","","","",""
"9205","-0.46490902","2.9986718","9.455663","-0.051109686","0.017017702","-0.019545099","","","",""
"9207","-0.44098046","2.9367547","9.4367695","-0.04791391","0.009560814","-0.01847983","","","",""
"9210","-0.42183828","2.955808","9.398986","-0.044718124","0.0063649784","-0.015284034","-15.501718","48.78619","-29.72158",""
"9212","-0.40748245","2.9653351","9.460384","-0.040457077","0.0010386158","-0.0120882355","","","",""
"9215","-0.4170583","3.0415437","9.46983","-0.041522346","-0.00535301","-0.012088229","","","",""
"9217","-0.37398434","2.9986782","9.40843","-0.03939183","-0.0021572632","-0.011022959","","","",""
"9220","-0.421851","2.9986794","9.44149","-0.035130784","-0.0010920444","-0.008892425","-15.508891","49.51688","-29.60926",""
"9222","-0.42185423","2.9843917","9.47455","-0.034065526","-0.0032226162","-0.007827155","","","",""
"9225","-0.40271205","2.998682","9.465105","-0.030869743","-0.0021573969","-0.007827149","","","",""
"9227","-0.40271527","3.0082092","9.52178","-0.028739223","-0.004287969","-0.003566088","","","",""
"9230","-0.41229105","2.9986844","9.559563","-0.026608704","-0.0074838037","-3.7029083E-4","-15.650579","50.437584","-29.333364",""
"9231","","","","","","","","","",""
"9232","-0.4027216","3.0225008","9.507609","-0.022347657","-0.001092267","-0.0025008104","","","",""
"9235","-0.39315206","2.9891615","9.455655","-0.01808661","-0.004288102","6.9498667E-4","","","",""
"9237","-0.42187333","3.0034513","9.455654","-0.01595609","-2.7092465E-5","0.0028255202","","","",""
"9240","-0.3979448","2.9939268","9.446208","-0.012760309","-2.7137168E-5","0.0038907903","-15.082356","49.495144","-30.135622",""
"9242","-0.35008448","2.9653504","9.441484","-0.009564525","0.0021033457","0.0060213236","","","",""
"9245","-0.39316487","2.9939291","9.4037","-0.005303479","0.002103301","0.0070865937","","","",""
"9247","-0.3405182","3.0272715","9.441483","-0.00636875","-0.0010925338","0.012412918","","","",""
"9250","-0.34530765","3.0987167","9.436759","-0.0031729664","-0.002157842","0.013478188","-15.052195","49.31277","-30.28357",""
"9252","-0.37402898","3.0701404","9.370636","2.2816646E-5","-0.0010926232","0.012412932","","","",""
"9255","-0.39796397","2.9986973","9.384805","2.280873E-5","-0.005353722","0.012412938","","","",""
"9257","-0.38360807","3.0320394","9.389527","0.0010880649","-0.004288503","0.013478208","","","",""
"9260","-0.3644659","3.093959","9.3328495","0.0010880574","0.0021030337","0.015608742","-15.139642","49.86284","-29.99434",""
"9262","-0.39797348","3.103486","9.304511","-0.002107741","0.0042335163","0.016674014","","","",""
"9265","-0.3788313","3.127302","9.280895","-0.003173012","0.0010376817","0.012412964","","","",""
"9267","-0.35968906","3.0891995","9.262003","-0.0042382833","-0.0053539444","0.010282444","","","",""
"9269","-0.40276945","3.1511195","9.257279","-0.009564608","-0.005353989","0.012412977","","","",""
"9270","","","","","","","-15.157629","50.05699","-30.464836",""
"9271","","","","","","","","","",""
"9272","-0.4027726","3.113017","9.233663","-0.014890934","-0.003223506","0.0156087745","","","",""
"9274","-0.35969865","3.1225443","9.243109","-0.015956204","-0.008549868","0.017739309","","","",""
"9277","-0.3549155","3.1797009","9.233662","-0.02128253","-0.011745703","0.019869843","","","",""
"9279","-0.34055966","3.1654134","9.247829","-0.026608855","-0.018137328","0.02306564","","","",""
"9280","","","","","","","-15.440517","49.897552","-30.565884",""
"9282","-0.3453491","3.1701777","9.186429","-0.029804653","-0.0202679","0.02093512","","","",""
"9284","-0.3214206","3.160653","9.2478285","-0.034065716","-0.023463735","0.020935128","","","",""
"9287","-0.30227843","3.2035208","9.2808895","-0.038326778","-0.025594307","0.01986987","","","",""
"9289","-0.29749522","3.193996","9.356457","-0.037261523","-0.029855404","0.015608821","","","",""
"9290","","","","","","","-15.730579","50.468796","-30.554613",""
"9292","-0.29749843","3.227338","9.375349","-0.03726153","-0.03305124","0.015608828","","","",""
"9294","-0.23049271","3.1701841","9.3706255","-0.039392065","-0.031986024","0.013478308","","","",""
"9297","-0.24485499","3.2368665","9.403686","-0.040457338","-0.03198607","0.011347787","","","",""
"9299","-0.26878992","3.2463937","9.384793","-0.038326815","-0.030920846","0.00708674","","","",""
"9300","","","","","","","-15.932106","49.75339","-30.635664",""
"9302","-0.24486136","3.217817","9.356454","-0.040457353","-0.022398783","0.0070867464","","","",""
"9304","-0.27358264","3.2178183","9.3942375","-0.03832683","-0.018137773","0.002825699","","","",""
"9307","-0.22572231","3.2082937","9.417851","-0.038326837","-0.018137818","0.001760442","","","",""
"9309","-0.27837542","3.2130585","9.413129","-0.040457375","-0.013876809","0.002825712","","","",""
"9310","","","","","","","-15.767429","49.381","-30.94719",""
"9311","","","","","","","","","",""
"9312","-0.2544468","3.2130594","9.422573","-0.042587906","-0.008550536","0.0017604551","","","",""
"9314","-0.29274073","3.165431","9.37062","-0.04365318","-0.009615844","6.951981E-4","","","",""
"9317","-0.24966682","3.213062","9.3847885","-0.04471845","-0.009615889","6.952055E-4","","","",""
"9319","-0.28317446","3.1749594","9.356449","-0.043653194","-0.00855067","0.0017604756","","","",""
"9320","","","","","","","-15.732262","49.9411","-31.601255",""
"9322","-0.28796396","3.1844869","9.394233","-0.0436532","-0.0074854507","0.0017604821","","","",""
"9324","-0.27839452","3.1511474","9.398955","-0.046848997","-0.0074854954","0.0017604886","","","",""
"9327","-0.25446594","3.1749632","9.380062","-0.04258795","-0.008550802","0.006021549","","","",""
"9329","-0.27361456","3.1844907","9.436738","-0.03939217","-0.006420321","0.008152083","","","",""
"9330","","","","","","","-16.051401","49.95814","-31.245138",""
"9332","-0.249686","3.1797287","9.446183","-0.039392177","-0.0064203655","0.009217353","","","",""
"9334","-0.23054375","3.1606781","9.3989525","-0.03513113","-0.0074856733","0.011347886","","","",""
"9337","-0.21140155","3.146391","9.417845","-0.02980482","-0.007485718","0.013478421","","","",""
"9339","-0.20183206","3.1797326","9.389505","-0.03087009","-0.008551026","0.0113479","","","",""
"9340","","","","","","","-15.841614","49.20627","-31.0795",""
"9342","-0.20662163","3.2226005","9.427289","-0.026609043","-0.007485807","0.011347907","","","",""
"9344","-0.19226572","3.2083127","9.432012","-0.025543788","-0.010681641","0.008152123","","","",""
"9347","-0.1970553","3.2130773","9.450903","-0.023413269","-0.01174695","0.0049563386","","","",""
"9349","-0.16355398","3.2226045","9.474518","-0.019152222","-0.013877521","0.008152136","","","",""
"9350","","","","","","","-15.421168","49.178646","-31.296644",""
"9351","","","","","","","","","",""
"9352","-0.15398455","3.2273686","9.455625","-0.01595644","-0.014942829","0.0028258248","","","",""
"9354","-0.18270576","3.2511847","9.469792","-0.009564866","-0.012812347","0.0017605678","","","",""
"9357","-0.2018544","3.2368972","9.43673","-0.004238556","-0.019203972","-0.0025004789","","","",""
"9359","-0.17313948","3.2178464","9.422561","-0.0021080363","-0.02026928","-0.0046309996","","","",""
"9360","","","","","","","-15.446606","49.891663","-30.256664",""
"9362","-0.15878358","3.194033","9.408391","0.0010877468","-0.020269325","-0.007826784","","","",""
"9364","-0.19229122","3.1749825","9.455621","0.0010877389","-0.02026937","-0.007826777","","","",""
"9366","-0.21143983","3.1845098","9.417837","0.002152995","-0.01920415","-0.006761507","","","",""
"9369","-0.18272494","3.1892738","9.413113","0.0021529875","-0.018138932","-0.012087818","","","",""
"9370","","","","","","","-15.759657","49.91459","-30.209766",""
"9371","-0.1731554","3.1464086","9.413112","-0.0010428105","-0.01600845","-0.011022548","","","",""
"9374","-0.2593129","3.1606987","9.493403","0.0010877086","-0.020269549","-0.012087805","","","",""
"9376","-0.22102523","3.170226","9.441449","-0.0010428259","-0.018139066","-0.009957271","","","",""
"9379","-0.19709674","3.1273603","9.4272785","-0.0010428333","-0.019204373","-0.009957264","","","",""
"9380","","","","","","","-15.901943","49.57102","-30.783611",""
"9381","-0.17795454","3.165465","9.432001","2.2422231E-5","-0.020269683","-0.011022521","","","",""
"9384","-0.27847105","3.2035704","9.436724","-0.0010428487","-0.017073935","-0.008891988","","","",""
"9386","-0.30719227","3.1654677","9.417831","2.240733E-5","-0.01707398","-0.011022508","","","",""
"9389","-0.34069994","3.1321285","9.408383","-0.001042864","-0.01600876","-0.011022502","","","",""
"9390","","","","","","","-15.664162","50.109936","-31.159721",""
"9391","-0.3167714","3.1702337","9.431999","0.0053487094","-0.014943542","-0.006761441","","","",""
"9394","-0.33591998","3.208338","9.4178295","0.007479229","-0.01600885","-0.007826698","","","",""
"9396","-0.3502822","3.2416801","9.431997","0.008544485","-0.017074158","-0.006761427","","","",""
"9399","-0.34549898","3.1940517","9.351706","0.011740268","-0.012813149","-0.0025003662","","","",""
"9400","","","","","","","-15.338936","50.09879","-31.825064",""
"9401","-0.3455022","3.213105","9.389489","0.013870788","-0.016008984","-3.6983262E-4","","","",""
"9404","-0.3550781","3.217869","9.332811","0.014936044","-0.018139554","0.001760701","","","",""
"9406","-0.38858575","3.2131076","9.365871","0.019197091","-0.016009072","0.002825971","","","",""
"9409","-0.31679374","3.2273977","9.290303","0.020262348","-0.019204909","0.0070870314","","","",""
"9410","","","","","","","-15.201376","49.911728","-32.14325",""
"9411","-0.32158324","3.1988213","9.276134","0.02026234","-0.019204952","0.007087038","","","",""
"9414","-0.3694499","3.2559779","9.295025","0.02239286","-0.019204997","0.008152308","","","",""
"9416","-0.35509408","3.3321865","9.280855","0.020262323","-0.021335568","0.008152314","","","",""
"9419","-0.3024474","3.2845578","9.238347","0.018131789","-0.021335613","0.0049565313","","","",""
"9420","","","","","","","-15.372144","50.27822","-31.522505",""
"9421","-0.32159597","3.2988482","9.2289","0.017066518","-0.024531448","0.0102828555","","","",""
"9424","-0.33595824","3.2607458","9.176946","0.014935982","-0.029857809","0.006021808","","","",""
"9426","-0.37425223","3.3083766","9.181669","0.0074791303","-0.031988386","0.0060218144","","","",""
"9429","-0.33117828","3.3131409","9.129715","0.0010875419","-0.036249485","0.008152348","","","",""
"9430","","","","","","","-15.384319","50.266438","-30.904066",""
"9431","-0.29289067","3.2512238","9.143883","2.2270891E-5","-0.03731479","0.007087091","","","",""
"9434","-0.31682557","3.2702768","9.148606","-0.0053040544","-0.04264115","0.0070870975","","","",""
"9436","-0.26896533","3.2845669","9.176943","-0.0148914335","-0.051163305","0.0060218405","","","",""
"9439","-0.25939584","3.3083832","9.195835","-0.023413548","-0.058620196","0.0049565844","","","",""
"9440","","","","","","","-15.9561825","49.941658","-30.79694",""
"9441","-0.23546724","3.2417028","9.210004","-0.028739873","-0.06075077","0.004956591","","","",""
"9444","-0.19239327","3.2369416","9.233618","-0.03300094","-0.061816078","0.0070871245","","","",""
"9446","-0.22111455","3.227417","9.295016","-0.03619674","-0.07033823","0.0017608136","","","",""
"9449","-0.24026318","3.1845515","9.389477","-0.039392535","-0.07566459","-3.697069E-4","","","",""
"9450","","","","","","","-16.063578","49.946358","-30.626696",""
"9451","-0.17804381","3.1893156","9.384753","-0.04471886","-0.08099095","-3.6970037E-4","","","",""
"9454","-0.14932896","3.2464724","9.450874","-0.04578413","-0.086317316","-0.004630748","","","",""
"9456","-0.14454576","3.2178955","9.469766","-0.04897993","-0.089513145","-0.007826532","","","",""
"9459","-0.12540358","3.2131343","9.516995","-0.046849407","-0.09270898","-0.011022315","","","",""
"9460","","","","","","","-15.707588","51.017105","-30.590239",""
"9461","-0.07754332","3.2655282","9.573671","-0.0415231","-0.09590482","-0.01741389","","","",""
"9464","-0.091905504","3.2274253","9.587839","-0.040457845","-0.0948396","-0.02487073","","","",""
"9466","-0.13019952","3.1940858","9.677577","-0.039392587","-0.09483965","-0.029131776","","","",""
"9468","-0.11584361","3.1845617","9.724806","-0.03513154","-0.0916439","-0.033392828","","","",""
"9470","","","","","","","-15.618183","51.20657","-31.230976",""
"9471","-0.1110605","3.1274073","9.71536","-0.030870492","-0.08738288","-0.039784398","","","",""
"9473","-0.12063634","3.1178825","9.743697","-0.027674709","-0.08099134","-0.044045445","","","",""
"9476","-0.1349986","3.103595","9.729527","-0.023413662","-0.07246928","-0.04724123","","","",""
"9478","-0.11585636","3.1321743","9.743696","-0.021283142","-0.0618167","-0.048306484","","","",""
"9480","","","","","","","-15.604921","50.481773","-31.652515",""
"9481","-0.15893668","3.0654938","9.724802","-0.021283152","-0.05755569","-0.05150227","","","",""
"9483","-0.19244431","3.1035988","9.67285","-0.019152632","-0.05649047","-0.054698057","","","",""
"9486","-0.1637294","3.0464447","9.630341","-0.01915264","-0.04690314","-0.05576331","","","",""
"9488","-0.19723709","3.013105","9.701186","-0.01702212","-0.040511608","-0.05150225","","","",""
"9490","","","","","","","-15.603836","49.745193","-31.455612",""
"9491","-0.18288119","3.0654988","9.639787","-0.015956864","-0.035185333","-0.050436985","","","",""
"9493","-0.22117516","3.0226336","9.644508","-0.013826345","-0.034120113","-0.05150224","","","",""
"9496","-0.2738282","3.032161","9.583108","-0.012761089","-0.028793838","-0.05150223","","","",""
"9498","-0.2451133","3.0035846","9.601998","-0.008500042","-0.02772862","-0.04617591","","","",""
"9500","","","","","","","-15.585846","49.551037","-30.98512",""
"9501","-0.3025527","3.0274007","9.606722","-0.0053042592","-0.024532873","-0.04404537","","","",""
"9503","-0.31212854","2.9654834","9.51226","-0.0053042667","-0.023467654","-0.03978431","","","",""
"9506","-0.29777265","2.9892995","9.450861","-0.0021084838","-0.024532963","-0.03552325","","","",""
"9508","-0.3360667","3.0035896","9.488645","-0.0010432277","-0.02559827","-0.035523243","","","",""
"9510","","","","","","","-15.645088","49.1792","-30.492327",""
"9511","-0.34085625","3.0321684","9.431968","0.003217819","-0.026663577","-0.032327447","","","",""
"9513","-0.34564573","3.0035923","9.3800125","0.0074788653","-0.030924676","-0.028066386","","","",""
"9516","-0.3504353","3.0178823","9.370567","0.004283067","-0.027728932","-0.025935853","","","",""
"9518","-0.32172036","3.06075","9.375289","0.0064135864","-0.03518582","-0.025935845","","","",""
"9520","","","","","","","-15.846617","48.463802","-30.573378",""
"9521","-0.31693724","3.0416996","9.408349","0.008544106","-0.037316393","-0.023805311","","","",""
"9523","-0.34087223","3.0512264","9.408348","0.014935679","-0.042642754","-0.020609515","","","",""
"9526","-0.32651633","3.0702796","9.417794","0.014935671","-0.047969118","-0.01847898","","","",""
"9528","-0.2690833","3.08457","9.469747","0.017066192","-0.04157758","-0.017413711","","","",""
"9530","","","","","","","-15.867649","48.655014","-30.889265",""
"9531","-0.29301822","3.0512302","9.3941765","0.017066184","-0.04477342","-0.015283178","","","",""
"9533","-0.30259413","3.0036023","9.427238","0.022392495","-0.045838725","-0.011022117","","","",""
"9536","-0.29781094","2.9702628","9.455576","0.022392487","-0.03944719","-0.008891583","","","",""
"9538","-0.31217322","2.965501","9.436682","0.02239248","-0.039447233","-0.00676105","","","",""
"9540","","","","","","","-15.658949","48.63973","-30.920532",""
"9541","-0.29781732","2.9845538","9.375283","0.024523","-0.03412096","0.0028263296","","","",""
"9543","-0.30739322","2.9797926","9.351667","0.022392465","-0.03199048","0.004956863","","","",""
"9546","-0.32654187","2.965505","9.356389","0.019196667","-0.027729467","0.0049568694","","","",""
"9548","-0.32175866","3.0083725","9.342219","0.021327186","-0.024533719","0.00921793","","","",""
"9550","","","","","","","-15.811451","49.0239","-31.227448",""
"9551","-0.2643257","3.0036113","9.304435","0.02452297","-0.031990614","0.011348464","","","",""
"9553","-0.25954252","3.0702937","9.318603","0.020261908","-0.03305592","0.012413734","","","",""
"9556","-0.33134097","3.0702949","9.309156","0.016000845","-0.0319907","0.014544267","","","",""
"9558","-0.31219876","3.0417187","9.285542","0.016000837","-0.031990748","0.015609537","","","",""
"9560","","","","","","","-16.187874","49.408627","-30.730047",""
"9561","-0.29784286","3.0798237","9.280817","0.01600083","-0.037317105","0.015609545","","","",""
"9563","-0.21169178","3.1560316","9.276093","0.014935558","-0.03838241","0.018805342","","","",""
"9566","-0.18297689","3.1512702","9.3186","0.012805023","-0.036251932","0.016674822","","","",""
"9568","-0.24520263","3.194138","9.337491","0.012805016","-0.0383825","0.014544301","","","",""
"9570","-0.25477847","3.1655614","9.309153","0.010674481","-0.03412149","0.013479044","-16.065536","49.206825","-30.275185",""
"9573","-0.23084994","3.1322224","9.261921","0.0064134197","-0.030925745","0.01028326","","","",""
"9575","-0.18298963","3.1322238","9.2997055","0.0021523584","-0.028795263","0.0070874756","","","",""
"9578","-0.21649732","3.1703284","9.318596","0.0021523505","-0.02986057","0.0028264283","","","",""
"9580","-0.21650052","3.1941442","9.266643","-0.002108711","-0.026664825","-3.6935578E-4","-15.952053","49.208023","-30.754648",""
"9583","-0.27393985","3.1893828","9.257196","-0.009565563","-0.02666487","-0.0024998754","","","",""
"9585","-0.23565225","3.2084358","9.318594","-0.013826625","-0.028795442","-0.007826187","","","",""
"9588","-0.22129634","3.1655705","9.285533","-0.021283476","-0.02666496","-0.009956707","","","",""
"9590","-0.23087227","3.1322315","9.271364","-0.026609803","-0.025599739","-0.007826174","-15.999119","48.84797","-30.880299",""
"9591","","","","","","","","","",""
"9593","-0.22130272","3.1417582","9.276085","-0.02660981","-0.027730314","-0.009956694","","","",""
"9595","-0.23087864","3.1131818","9.290254","-0.031936135","-0.026665093","-0.009956688","","","",""
"9598","-0.2165228","3.127472","9.351652","-0.035131935","-0.028795663","-0.012087208","","","",""
"9600","-0.16866249","3.1131842","9.37999","-0.036197208","-0.033056766","-0.011021938","-16.05336","49.21861","-30.893627",""
"9603","-0.22610182","3.060793","9.417774","-0.037262477","-0.034122072","-0.012087194","","","",""
"9605","-0.2500368","3.0274541","9.46028","-0.037262484","-0.034122113","-0.011021924","","","",""
"9608","-0.22610825","3.0798478","9.488618","-0.037262492","-0.03092637","-0.011021918","","","",""
"9610","-0.2644022","3.0417452","9.498063","-0.035131972","-0.036252733","-0.013152438","-16.110643","49.586304","-30.752344",""
"9613","-0.23090091","3.0607982","9.488616","-0.03193619","-0.034122247","-0.009956641","","","",""
"9615","-0.2739813","3.1322439","9.535847","-0.02767514","-0.03199177","-0.011021898","","","",""
"9618","-0.28834352","3.146534","9.5830765","-0.02234883","-0.026665492","-0.016348207","","","",""
"9620","-0.25962862","3.094143","9.630305","-0.021283574","-0.025600275","-0.016348202","-15.761341","49.386894","-31.256409",""
"9623","-0.317068","3.0369883","9.6397505","-0.0127614755","-0.026665581","-0.015282932","","","",""
"9625","-0.28835306","3.0512784","9.606689","-0.008500429","-0.022404572","-0.013152398","","","",""
"9628","-0.3027153","3.036991","9.601965","-0.004239382","-0.02027409","-0.012087128","","","",""
"9630","-0.29793218","3.075096","9.616133","0.0010869282","-0.01601308","-0.006760804","-15.904987","49.568073","-30.628998",""
"9631","","","","","","","","","",""
"9633","-0.30750805","3.0798602","9.578349","0.007478501","-0.014947861","-0.005695534","","","",""
"9635","-0.35537472","3.0846245","9.573625","0.008543758","-0.013882643","-0.006760791","","","",""
"9638","-0.35059154","3.1227293","9.625578","0.01173954","-0.012817424","-0.00249973","","","",""
"9640","-0.3553811","3.1036785","9.559455","0.018131115","-0.009621678","-3.6919652E-4","-16.089613","49.39509","-30.43646",""
"9643","-0.31709355","3.089391","9.639746","0.024522688","-0.0053606685","0.0028266015","","","",""
"9645","-0.29795128","3.0751035","9.611407","0.031979524","-0.0032301855","0.0060223984","","","",""
"9648","-0.33624527","3.0608158","9.550006","0.034110047","-3.443967E-5","0.006022405","","","",""
"9650","-0.30753037","3.0179508","9.516945","0.035175297","0.0042265696","0.008152938","-16.04423","49.227448","-31.357454",""
"9653","-0.3075336","3.0608184","9.474437","0.040501606","0.005291789","0.011348736","","","",""
"9655","-0.36018658","3.0941606","9.450821","0.038371075","0.006357008","0.014544533","","","",""
"9658","-0.35061708","3.0846357","9.384698","0.038371067","0.006356963","0.014544539","","","",""
"9660","-0.2979704","3.1417923","9.351636","0.037305795","0.005291655","0.016675074","-16.128632","49.78046","-31.22284",""
"9663","-0.3123327","3.113216","9.379973","0.03411","0.0031610841","0.015609816","","","",""
"9665","-0.3027632","3.0846395","9.361081","0.0309142","-0.0021652787","0.017740352","","","",""
"9668","-0.33148447","3.0941668","9.346911","0.028783666","-0.006426377","0.019870885","","","",""
"9670","-0.28841045","3.1656122","9.365802","0.024522604","-0.007491685","0.020936156","-15.824713","49.748695","-30.805908",""
"9671","","","","","","","","","",""
"9672","-0.2836273","3.1370358","9.384693","0.021326806","-0.008556993","0.023066688","","","",""
"9675","-0.21662171","3.1084595","9.394139","0.020261535","-0.009622301","0.02413196","","","",""
"9677","-0.17354774","3.1608531","9.342186","0.016000474","-0.014948663","0.024131965","","","",""
"9680","-0.15440555","3.194195","9.35163","0.013869938","-0.010687653","0.020936182","-15.926018","49.75928","-30.944887",""
"9682","-0.15440871","3.1560924","9.408306","0.012804667","-0.012818225","0.020936187","","","",""
"9685","-0.15441191","3.1846719","9.446091","0.008543606","-0.01601406","0.020936195","","","",""
"9687","-0.14484243","3.1275175","9.408304","0.0074783345","-0.014948841","0.016675146","","","",""
"9690","-0.120913826","3.1513338","9.436643","2.1482527E-5","-0.017079413","0.014544626","-16.00738","50.31524","-30.96488",""
"9692","-0.11134437","3.1894383","9.446089","-0.002109052","-0.019209985","0.009218315","","","",""
"9695","-0.087415755","3.1942027","9.507487","-0.0021090598","-0.024536347","0.007087794","","","",""
"9697","-0.14006883","3.2227821","9.493317","-0.007435385","-0.024536392","0.0049572736","","","",""
"9700","-0.12092657","3.1513386","9.498039","-0.0053048655","-0.02240591","0.0038920168","-16.18896","50.145203","-30.92695",""
"9702","-0.12571613","3.1751547","9.521654","2.1444808E-5","-0.024536481","6.962328E-4","","","",""
"9705","-0.1257193","3.1703935","9.56416","2.1436892E-5","-0.022405997","-0.0014342868","","","",""
"9707","-0.13050887","3.165631","9.5405445","0.0021519565","-0.020275515","-0.0056953346","","","",""
"9710","-0.11615302","3.1561065","9.592498","0.010674057","-0.02347135","-0.005695328","-15.974171","50.13581","-31.267435",""
"9711","","","","","","","","","",""
"9712","-0.13530159","3.1322935","9.583051","0.01386984","-0.022406131","-0.007825849","","","",""
"9715","-0.13051845","3.1703985","9.512205","0.01600036","-0.021340912","-0.009956369","","","",""
"9717","-0.15445337","3.1227698","9.606665","0.02132667","-0.021340957","-0.013152153","","","",""
"9720","-0.14967023","3.1084824","9.606664","0.024522454","-0.016014684","-0.013152147","-15.986347","50.124027","-30.648993",""
"9722","-0.15924603","3.1227725","9.601939","0.02558771","-0.010688411","-0.011021613","","","",""
"9725","-0.1736083","3.0703812","9.55471","0.03197928","-0.013884245","-0.009956342","","","",""
"9727","-0.17839788","3.0941975","9.545262","0.0341098","-0.016014818","-0.009956336","","","",""
"9730","-0.15446933","3.1323023","9.564154","0.035175055","-0.007492754","-0.007825802","-16.662561","49.806892","-30.526234",""
"9732","-0.18319054","3.079911","9.587769","0.039436102","-0.0074927984","-0.004630005","","","",""
"9735","-0.254989","3.0703864","9.554708","0.039436094","-0.0042970525","-0.0035647347","","","",""
"9737","-0.23106045","3.0656242","9.540536","0.038370825","0.0010292206","-0.0024994647","","","",""
"9740","-0.19755918","3.0703888","9.5121975","0.041566607","0.0010291764","0.001761596","-16.470762","49.24918","-30.831097",""
"9742","-0.1879897","3.1227827","9.474413","0.0415666","0.0031596588","0.004957393","","","",""
"9745","-0.21192461","3.122784","9.493305","0.038370803","0.008485932","0.006022664","","","",""
"9747","-0.20235512","3.122785","9.498026","0.039436057","0.011681678","0.008153197","","","",""
"9750","-0.197572","3.1084976","9.44135","0.03943605","0.012746897","0.010283731","-15.791504","49.569267","-31.108463",""
"9751","","","","","","","","","",""
"9752","-0.2358659","3.1418393","9.398842","0.03624025","0.011681589","0.009218474","","","",""
"9755","-0.2502281","3.1847074","9.427179","0.038370773","0.011681545","0.008153217","","","",""
"9757","-0.22151321","3.1656568","9.403564","0.038370766","0.009550973","0.0102837505","","","",""
"9760","-0.2454482","3.2037616","9.361056","0.03837076","0.009550929","0.012414284","-15.950094","49.947548","-31.10616",""
"9762","-0.22630595","3.2037628","9.422454","0.03624022","0.008485621","0.0102837635","","","",""
"9765","-0.17365934","3.1608977","9.32327","0.038370743","0.0052897846","0.01028377","","","",""
"9767","-0.1832352","3.208528","9.318546","0.04050126","0.004224477","0.0102837775","","","",""
"9770","-0.19281112","3.2323442","9.3705","0.037305463","0.0020939054","0.008153257","-15.660032","49.3763","-31.117432",""
"9772","-0.17845528","3.2466345","9.379944","0.039435983","-0.0053629843","0.004957473","","","",""
"9774","-0.1928175","3.2466357","9.34216","0.042631768","-0.006428292","0.0017616891","","","",""
"9777","-0.13059819","3.2514","9.37522","0.038370706","-0.0011020189","0.0017616956","","","",""
"9779","-0.14974675","3.179957","9.422449","0.040501222","-0.0021673266","6.964386E-4","-15.386002","49.738747","-31.950708",""
"9782","-0.14974996","3.1894841","9.365773","0.042631745","-0.0042978986","-0.0024993455","","","",""
"9784","-0.14496683","3.227589","9.337434","0.043697","-0.002167416","-0.0035646025","","","",""
"9787","-0.16411534","3.2275903","9.384664","0.04263173","-0.0064285146","-0.0056951223","","","",""
"9789","-0.15454584","3.2418804","9.398831","0.03943593","-0.0042980323","-0.00995617","-16.049444","50.697662","-31.59665",""
"9791","","","","","","","","","",""
"9792","-0.1641217","3.2275927","9.337432","0.04050118","-0.0021675497","-0.011021427","","","",""
"9794","-0.18805668","3.170439","9.299647","0.03837065","-0.0011023304","-0.01102142","","","",""
"9797","-0.15934172","3.1942544","9.327985","0.036240112","-3.7111167E-5","-0.013151941","","","",""
"9799","-0.21199483","3.1942556","9.356322","0.039435897","0.0010281072","-0.016347723","-16.373587","49.97223","-30.734407",""
"9802","-0.22157063","3.208546","9.351599","0.035174835","0.0020933265","-0.020608773","","","",""
"9804","-0.21200119","3.1894956","9.309091","0.0330443","0.0052890726","-0.015282447","","","",""
"9807","-0.25508153","3.1942594","9.276029","0.02771798","0.0052890275","-0.014217177","","","",""
"9809","-0.20243485","3.1847353","9.356319","0.025587445","-3.733422E-5","-0.014217171","-16.271194","49.225056","-30.398531",""
"9812","-0.20722443","3.1513958","9.309089","0.024522172","0.004223675","-0.00995611","","","",""
"9814","-0.2503047","3.1418707","9.242965","0.021326374","0.0042236308","-0.011021367","","","",""
"9817","-0.23594886","3.156161","9.252411","0.01919584","0.0031583228","-0.008890834","","","",""
"9819","-0.2263793","3.1847405","9.271302","0.019195832","0.001027751","-0.007825564","-16.656473","49.812782","-30.835457",""
"9822","-0.25988698","3.108534","9.304362","0.017065298","-0.0021680838","-0.007825557","","","",""
"9824","-0.23117203","3.0990095","9.219348","0.011738972","-0.0021681285","-0.0035644963","","","",""
"9827","-0.2359616","3.1132998","9.2713","0.010673701","-0.005363964","-0.0046297526","","","",""
"9829","-0.24075116","3.1418784","9.309084","0.013869484","-0.0053640082","-0.006760273","-16.939362","49.653336","-30.9365",""
"9831","","","","","","","","","",""
"9832","-0.1785318","3.1418798","9.276022","0.01493474","-0.0074945795","-0.0067602666","","","",""
"9834","-0.20246677","3.1323557","9.318528","0.008543151","-0.006429361","-0.00676026","","","",""
"9837","-0.26469246","3.1799858","9.3374195","0.00747788","-0.010690459","-0.008890781","","","",""
"9839","-0.19290045","3.1895132","9.356311","0.007477872","-0.010690504","-0.007825511","-16.419565","48.875595","-30.663155",""
"9842","-0.17854454","3.1275961","9.318526","0.006412601","-0.011755811","-0.0067602405","","","",""
"9844","-0.19290681","3.1085458","9.323249","0.008543121","-0.010690592","-0.0056949705","","","",""
"9847","-0.20248273","3.1133096","9.323248","0.005347322","-0.012821164","-0.0035644358","","","",""
"9849","-0.25513572","3.0752075","9.332694","0.009608368","-0.018147526","-0.007825484","-15.891724","48.843273","-31.050539",""
"9852","-0.20727539","3.1942825","9.313802","0.009608361","-0.020278098","-0.008890741","","","",""
"9854","-0.21685132","3.1514173","9.318522","0.00854309","-0.024539197","-0.0078254705","","","",""
"9857","-0.20249549","3.1561813","9.337415","0.0064125555","-0.022408715","-0.0067602005","","","",""
"9859","-0.24078946","3.113316","9.4177065","0.006412548","-0.020278232","-0.0078254575","-16.074392","49.40982","-31.20951",""
"9862","-0.20250185","3.0942657","9.422427","0.008543068","-0.024539331","-0.011021242","","","",""
"9864","-0.23600942","3.108556","9.417705","0.005347269","-0.024539376","-0.011021235","","","",""
"9867","-0.2503717","3.132372","9.446042","0.0074777887","-0.020278366","-0.0088907005","","","",""
"9869","-0.2312295","3.0847435","9.408257","0.005347254","-0.021343673","-0.011021221","-16.176785","50.156986","-31.54539",""
"9871","","","","","","","","","",""
"9872","-0.25037807","3.1180854","9.384641","0.0064125103","-0.017082663","-0.0088906875","","","",""
"9874","-0.23123586","3.1419013","9.450764","0.003216712","-0.016017444","-0.0099559445","","","",""
"9876","-0.25995713","3.108562","9.408255","0.0010861775","-0.01601749","-0.013151729","","","",""
"9879","-0.30782384","3.1180892","9.408254","0.0032166971","-0.01175648","-0.008890668","-16.072433","50.149345","-31.561022",""
"9881","-0.2360318","3.08475","9.446038","0.0021514257","-0.011756524","-0.005694871","","","",""
"9884","-0.25039402","3.0847511","9.488544","-0.0010443723","-0.010691306","-0.007825391","","","",""
"9886","-0.25996995","3.1085672","9.474375","-0.0021096433","-0.005365033","-0.011021175","","","",""
"9889","-0.23604134","3.0990424","9.427143","2.0876236E-5","-0.0021692866","-0.008890641","-16.286139","49.422157","-31.023634",""
"9891","-0.24561726","3.0657027","9.408251","0.0010861319","-0.0011040673","-0.008890634","","","",""
"9894","-0.24083412","3.099045","9.441312","0.0032166515","0.0020916786","-0.004629574","","","",""
"9896","-0.24083728","3.1514387","9.412972","0.003216644","0.008483215","-0.007825358","","","",""
"9899","-0.27913123","3.1323884","9.417696","0.0053471634","0.0106136985","-0.0046295607","-16.626308","49.63041","-30.9834",""
"9901","-0.25998905","3.0466564","9.4790945","0.0053471555","0.010613654","-0.0035642905","","","",""
"9904","-0.27913767","3.0609465","9.436585","0.0064124116","0.012744136","-0.003564284","","","",""
"9906","-0.29349983","3.0657103","9.384632","0.0074776676","0.0148746185","-0.0014337504","","","",""
"9909","-0.27914405","3.0371342","9.431862","0.0053471327","0.014874574","6.967841E-4","-16.290266","50.155792","-31.065926",""
"9911","-0.2600018","3.051424","9.422415","0.0074776523","0.012744002","-3.684729E-4","","","",""
"9914","-0.25521865","3.0752401","9.412968","0.005347118","0.013809221","0.0017620607","","","",""
"9916","-0.27915365","3.0990565","9.436583","0.0032165835","0.013809176","0.0038925942","","","",""
"9919","-0.2839431","3.0561912","9.361014","0.0074776295","0.015939659","0.004957864","-16.033413","49.76398","-30.774643",""
"9921","-0.25522825","3.0085626","9.422412","0.010673412","0.015939614","0.010284188","","","",""
"9924","-0.26001775","3.0847714","9.408242","0.006412351","0.017004834","0.012414722","","","",""
"9926","-0.27438003","3.0657208","9.408241","0.0053470796","0.013808998","0.014545255","","","",""
"9929","-0.25045142","3.0371442","9.389349","0.0032165453","0.012743691","0.017741054","-16.456903","49.78866","-30.402891",""
"9931","-0.22173652","3.1133528","9.427133","0.004281801","0.012743646","0.016675798","","","",""
"9934","-0.18344897","3.141932","9.375179","0.005347057","0.0106130745","0.019871594","","","",""
"9936","-0.20259754","3.146696","9.450747","0.004281786","0.014874084","0.017741075","","","",""
"9939","-0.21695976","3.1276455","9.412961","0.003216515","0.013808776","0.018806344","-16.42674","49.60629","-30.550835",""
"9941","-0.22653562","3.127647","9.36573","0.004281771","0.0052866223","0.019871613","","","",""
"9944","-0.19303443","3.1705148","9.384623","0.004281763","0.0074171047","0.020936884","","","",""
"9946","-0.18825129","3.1800418","9.394067","0.0032164922","0.00741706","0.015610572","","","",""
"9949","-0.15475003","3.1752803","9.379898","0.0053470116","0.0020906983","0.014545316","-16.387444","49.43275","-31.162613",""
"9951","-0.1882576","3.1848073","9.365727","0.005347004","-0.0021704","0.011349532","","","",""
"9954","-0.135611","3.1752827","9.38462","0.0053469962","0.0010253459","0.009219011","","","",""
"9956","-0.14997327","3.2181506","9.379895","0.0064122523","-0.002170489","0.009219018","","","",""
"9959","-0.16433543","3.194337","9.431849","0.0032164545","-0.006431588","0.003892707","-16.411522","49.621017","-31.323885",""
"9961","-0.154766","3.194338","9.427125","0.00428171","-0.0064316327","0.0038927135","","","",""
"9964","-0.15476915","3.1895769","9.417678","0.0042817025","-0.0074969404","0.00389272","","","",""
"9966","-0.13562694","3.1324227","9.375171","0.008542749","-0.007496985","6.969359E-4","","","",""
"9969","-0.12127111","3.1467128","9.4223995","0.008542742","-0.009627556","0.0017622069","-16.497883","49.434498","-30.83776",""
"9971","-0.14041968","3.2229214","9.384615","0.009607998","-0.007497074","0.0017622134","","","",""
"9974","-0.1835","3.1943445","9.337384","0.0074774628","-0.0053665917","0.0017622199","","","",""
"9976","-0.18350317","3.1800568","9.360999","0.008542719","-0.008562427","0.00282749","","","",""
"9979","-0.15957461","3.1657696","9.332659","0.0064121843","-0.012823525","0.0028274965","-16.703539","49.45273","-30.961102",""
"9981","-0.22180036","3.161008","9.417674","0.009607967","-0.011758306","0.002827503","","","",""
"9983","-0.18351275","3.184824","9.403504","0.0074774325","-0.008562559","0.0028275095","","","",""
"9986","-0.22180673","3.180062","9.360996","0.0032163712","-0.012823659","0.0017622525","","","",""
"9988","-0.21223724","3.1657746","9.43184","0.0042816265","-0.010693176","0.006023314","","","",""
"9989","","","","","","","-16.458588","49.260963","-31.449535",""
"9991","-0.2170268","3.1657758","9.412948","0.004281619","-0.008562693","0.0038927936","","","",""
"9993","-0.1930982","3.2086434","9.422393","0.0032163484","-0.0074974755","0.006023327","","","",""
"9996","-0.22660582","3.199119","9.488515","0.0010858134","-0.006432256","0.00815386","","","",""
"9998","-0.19310457","3.1705427","9.450731","0.003216333","-0.005367037","0.010284394","","","",""
"9999","","","","","","","-16.205862","49.602787","-31.200542",""
"10001","-0.17874873","3.1467292","9.446007","0.002151062","-0.0032365543","0.011349664","","","",""
"10003","-0.17875195","3.165782","9.450729","0.001085791","-0.004301863","0.009219144","","","",""
"10006","-0.1548234","3.1514945","9.42239","0.0032163102","-0.0032366437","0.00921915","","","",""
"10008","-0.14046755","3.161022","9.427113","0.0053468295","0.0020896296","0.012414948","","","",""
"10009","","","","","","","-16.054445","49.955193","-31.090527",""
"10011","-0.16440241","3.1800747","9.4176655","0.005346822","-4.0942163E-5","0.010284428","","","",""
"10013","-0.13090122","3.156261","9.441279","0.0064120777","0.004220067","0.009219171","","","",""
"10016","-0.14047708","3.2086549","9.460172","0.008542597","0.0052852863","0.010284441","","","",""
"10018","-0.1309076","3.2038934","9.431833","0.0053467993","0.0042199786","0.006023393","","","",""
"10019","","","","","","","-15.58889","49.54809","-30.83051",""
"10021","-0.11176542","3.1657908","9.384602","0.008542582","0.0074157245","0.0060233995","","","",""
"10023","-0.10698222","3.2181847","9.403494","0.007477311","0.006350416","0.0049581425","","","",""
"10026","-0.10698544","3.1705568","9.3751545","0.0074773035","0.0063503715","6.970952E-4","","","",""
"10028","-0.15006575","3.170558","9.370431","0.005346769","0.0042198002","0.0017623652","","","",""
"10029","","","","","","","-15.983303","50.126972","-30.803604",""
"10031","-0.15006897","3.256292","9.346815","2.0444102E-5","0.0031544922","-0.003563945","","","",""
"10033","-0.09742232","3.203901","9.431829","0.0021509633","-4.1343097E-5","-0.004629202","","","",""
"10036","-0.11178454","3.1610355","9.493228","0.0032162194","-4.1387335E-5","-0.0046291957","","","",""
"10038","-0.10221499","3.1753259","9.48378","0.0021509484","0.0052848854","-0.009955507","","","",""
"10039","","","","","","","-16.952623","50.378136","-30.514961",""
"10041","-0.12136359","3.1848533","9.502672","0.0021509405","0.011676422","-0.008890237","","","",""
"10043","-0.11179413","3.1753283","9.512117","0.00428146","0.015937433","-0.009955494","","","",""
"10046","-0.097438216","3.1610408","9.573516","0.007477243","0.020198442","-0.013151278","","","",""
"10048","-0.097441435","3.1515162","9.493225","0.0085424995","0.025524715","-0.01634706","","","",""
"10049","","","","","","","-16.673374","49.27036","-31.109049",""
"10051","-0.11658998","3.1372285","9.479054","0.012803545","0.02872046","-0.015281792","","","",""
"10053","-0.15967031","3.13723","9.469607","0.011738274","0.031916205","-0.013151257","","","",""
"10056","-0.18360528","3.156283","9.360977","0.01280353","0.03191616","-0.013151251","","","",""
"10058","-0.1979675","3.161047","9.351531","0.017064577","0.031916115","-0.015281771","","","",""
"10059","","","","","","","-16.249887","49.245678","-31.4808",""
"10061","-0.25062054","3.1705744","9.370422","0.01706457","0.032981336","-0.014216501","","","",""
"10063","-0.24105099","3.1562867","9.365698","0.017064562","0.02872024","-0.012085968","","","",""
"10066","-0.24584055","3.1848657","9.389314","0.0245214","0.028720194","-0.008890171","","","",""
"10068","-0.27456188","3.1991558","9.342082","0.027717182","0.02872015","-0.00462911","","","",""
"10069","","","","","","","-16.292227","49.416267","-30.714415",""
"10071","-0.24584693","3.1848686","9.29485","0.029847704","0.028720105","-0.0024985753","","","",""
"10073","-0.23149109","3.2039213","9.299574","0.035174012","0.024459006","-0.0024985687","","","",""
"10076","-0.23628059","3.2182114","9.313742","0.036239263","0.020197907","0.0017624919","","","",""
"10078","-0.27457464","3.1515315","9.238173","0.038369786","0.013806282","0.002827762","","","",""
"10079","","","","","","","-15.749441","49.186844","-30.476694",""
"10081","-0.24585967","3.2086878","9.190941","0.03836978","0.010610446","0.003893032","","","",""
"10083","-0.20278578","3.2658448","9.242894","0.034108717","0.0052840835","0.007088829","","","",""
"10086","-0.22193427","3.2515574","9.157879","0.0373045","0.004218776","0.0028277815","","","",""
"10088","-0.2410829","3.299188","9.1295395","0.035173964","-4.232285E-5","0.0017625245","","","",""
"10089","","","","","","","-15.944008","49.95344","-31.415379",""
"10090","-0.14535919","3.3277671","9.153155","0.031978164","-0.002172894","0.003893059","","","",""
"10093","-0.16450769","3.3134792","9.138985","0.027717106","-0.007499257","6.972749E-4","","","",""
"10095","-0.21237443","3.3325324","9.115369","0.022390781","-0.008564564","-0.0024985091","","","",""
"10098","-0.19801854","3.29443","9.172045","0.01812972","-0.014956189","-0.00462903","","","",""
"10099","","","","","","","-15.954823","49.41691","-31.998194",""
"10100","-0.15015829","3.332535","9.124814","0.013868657","-0.020282554","-0.0067595504","","","",""
"10103","-0.10229794","3.3134842","9.205105","0.0074770683","-0.02454365","-0.011020598","","","",""
"10105","-0.11187386","3.289671","9.247611","0.0042812703","-0.027739488","-0.012085855","","","",""
"10108","-0.13580881","3.3468277","9.228719","-0.0063713724","-0.030935321","-0.016346902","","","",""
"10109","","","","","","","-16.07135","49.412766","-31.364119",""
"10110","-0.11188023","3.265859","9.242887","-0.012762961","-0.030935366","-0.02060795","","","",""
"10111","","","","","","","","","",""
"10113","-0.121456124","3.26586","9.28067","-0.021285076","-0.029870145","-0.024868997","","","",""
"10115","-0.12624563","3.2610981","9.337346","-0.0266114","-0.028804928","-0.026999515","","","",""
"10118","-0.07838538","3.2325218","9.398746","-0.03193773","-0.025609182","-0.030195301","","","",""
"10119","","","","","","","-16.292227","49.416267","-30.714415",""
"10120","-0.116679356","3.22776","9.40819","-0.037264053","-0.0234787","-0.032325823","","","",""
"10123","-0.10232349","3.246813","9.389298","-0.03726406","-0.018152425","-0.034456342","","","",""
"10125","-0.15497649","3.2134738","9.436527","-0.04045986","-0.010695625","-0.03445634","","","",""
"10128","-0.13583429","3.1563194","9.455419","-0.046851445","-0.011760934","-0.03339107","","","",""
"10129","","","","","","","-16.30717","49.613373","-31.339518",""
"10130","-0.14062387","3.1896617","9.479033","-0.046851452","-0.0064346613","-0.034456324","","","",""
"10133","-0.18849054","3.1706111","9.512094","-0.041525144","-0.004304179","-0.035521578","","","",""
"10135","-0.17413464","3.0991678","9.545155","-0.044720944","-0.002173696","-0.03445631","","","",""
"10138","-0.19328322","3.1420357","9.530984","-0.045786213","0.0020873134","-0.03339104","","","",""
"10139","","","","","","","-16.60913","50.384663","-32.10796",""
"10140","-0.21721819","3.127748","9.512092","-0.042590432","0.0031525323","-0.02912998","","","",""
"10143","-0.19328964","3.070594","9.554599","-0.039394647","0.0042177513","-0.028064707","","","",""
"10145","-0.23636991","3.0515435","9.502645","-0.0351336","0.00528297","-0.024868911","","","",""
"10148","-0.24594584","3.042019","9.535706","-0.030872555","0.0052829254","-0.020607851","","","",""
"10149","","","","","","","-16.462717","49.994602","-31.491825",""
"10150","-0.22680359","3.0658345","9.5593195","-0.02767677","0.0074134083","-0.018477315","","","",""
"10151","","","","","","","","","",""
"10153","-0.25073856","3.0467844","9.582934","-0.02235046","0.004217573","-0.013150992","","","",""
"10155","-0.23638272","3.0801268","9.526257","-0.019154677","0.0010217379","-0.012085722","","","",""
"10158","-0.20766781","3.113468","9.512087","-0.015958896","-4.356989E-5","-0.009955188","","","",""
"10159","","","","","","","-16.494839","49.437443","-30.992369",""
"10160","-0.20767103","3.0944178","9.554594","-0.007436795","-0.0011088781","-0.008889918","","","",""
"10163","-0.23639224","3.1039448","9.606546","-0.0031757483","-0.0011089228","-0.0067593846","","","",""
"10165","-0.2316091","3.132524","9.587654","0.0021505614","-0.0021742305","-0.0024983238","","","",""
"10168","-0.23161227","3.142051","9.559315","0.0106726615","0.0020867789","-3.6779023E-4","","","",""
"10169","","","","","","","-16.237986","49.04563","-30.701084",""
"10170","-0.23161548","3.2277856","9.578206","0.013868445","-0.001109056","-0.0014330472","","","",""
"10173","-0.19332793","3.2134979","9.549869","0.019194756","-0.0075006825","-0.0035635668","","","",""
"10175","-0.15982662","3.132529","9.488468","0.026651593","-0.004304936","-0.0035635603","","","",""
"10178","-0.20290701","3.165871","9.479021","0.0319779","-0.009631298","-0.0046288176","","","",""
"10179","","","","","","","-16.312172","48.8709","-30.833399",""
"10180","-0.17419204","3.1468205","9.545142","0.035173684","-0.009631342","-0.004628811","","","",""
"10183","-0.17419526","3.1753993","9.535696","0.03943473","-0.0128271775","-0.005694068","","","",""
"10185","-0.19334383","3.1754007","9.516803","0.040499985","-0.016023012","-0.006759325","","","",""
"10188","-0.1885607","3.151587","9.502633","0.04263051","-0.012827266","-0.007824582","","","",""
"10189","","","","","","","-16.380272","48.702065","-31.27493",""
"10190","-0.15027308","3.180166","9.554586","0.04582629","-0.00963152","-0.009955103","","","",""
"10191","","","","","","","","","",""
"10193","-0.15984896","3.1611156","9.488463","0.04902207","-0.008566301","-0.012085622","","","",""
"10195","-0.17899758","3.1515908","9.535692","0.049022064","-0.011762137","-0.013150879","","","",""
"10197","-0.20771885","3.142066","9.479016","0.051152587","-0.008566391","-0.009955082","","","",""
"10199","","","","","","","-16.219723","49.063305","-31.628748",""
"10200","-0.19814935","3.132542","9.464847","0.04902205","-0.0075011724","-0.012085603","","","",""
"10202","-0.18379346","3.113491","9.427061","0.046891518","-0.004305426","-0.012085596","","","",""
"10205","-0.20294209","3.1515958","9.393998","0.04689151","-0.002174943","-0.01208559","","","",""
"10207","-0.22070242","3.1367567","9.365947","0.04156848","-0.001090342","-0.012088469","","","",""
"10209","","","","","","","-16.822836","49.65748","-31.570578",""
"10210","-0.17762655","3.117705","9.365946","0.04050321","-0.0021556227","-0.009957939","","","",""
"10212","-0.28292745","3.122469","9.337608","0.03730361","-0.003222887","-0.011026486","","","",""
"10215","-0.22070618","3.0510247","9.313993","0.03410782","-2.711371E-5","-0.004634902","","","",""
"10217","-0.23028013","3.1272328","9.30927","0.02665097","-0.0032229219","-0.0035696353","","","",""
"10219","","","","","","","-16.880121","50.025173","-31.429295",""
"10220","-0.26378584","3.1367593","9.347054","0.025585705","-0.0021576756","6.914215E-4","","","",""
"10222","-0.25421435","3.0796046","9.328161","0.023455175","-0.00428822","-3.7384016E-4","","","",""
"10225","-0.24464288","3.1415231","9.332884","0.019194117","-0.004288237","0.0028219533","","","",""
"10227","-0.2590032","3.1558123","9.361222","0.01173727","-0.0021577277","0.0060177464","","","",""
"10229","","","","","","","-16.351192","49.256268","-31.61978",""
"10230","-0.23985903","3.1224723","9.304544","0.011737267","-0.003223009","0.008148276","","","",""
"10231","","","","","","","","","",""
"10232","-0.23986028","3.1939173","9.309268","0.010672","-0.00748408","0.010278805","","","",""
"10235","-0.24943423","3.2082064","9.332883","0.010671997","-0.013875678","0.010278808","","","",""
"10237","-0.26379454","3.1415257","9.295098","0.008541467","-0.009614642","0.010278811","","","",""
"10239","","","","","","","-16.404346","48.890324","-31.436205",""
"10240","-0.23507768","3.1510522","9.328159","0.0032151465","-0.0117451865","0.00921355","","","",""
"10242","-0.24465157","3.2224972","9.351774","0.0032151437","-0.01387573","0.01134408","","","",""
"10245","-0.24943918","3.1510532","9.40845","0.002149877","-0.0128104845","0.008148291","","","",""
"10247","-0.18243155","3.1939201","9.375389","0.0032151376","-0.012810502","0.0049525034","","","",""
"10249","","","","","","","-16.581202","49.250935","-30.506239",""
"10250","-0.16807374","3.1891577","9.375389","0.0010846078","-0.011745255","0.00921356","","","",""
"10252","-0.21115217","3.2367878","9.370666","0.004280395","-0.014941063","0.004952509","","","",""
"10255","-0.2015807","3.2224996","9.380112","0.0032151288","-0.016006345","0.004952511","","","",""
"10257","-0.18243656","3.2177367","9.450956","0.002149862","-0.017071625","0.0049525136","","","",""
"10259","","","","","","","-16.259018","49.23684","-31.01697",""
"10260","-0.1728651","3.2177372","9.446233","0.0021498592","-0.017071642","0.0017567261","","","",""
"10262","-0.23030251","3.1748712","9.399003","0.00321512","-0.0128106065","-0.0014390617","","","",""
"10265","-0.23030376","3.2177382","9.484016","0.0032151167","-0.01174536","-0.003569586","","","",""
"10267","-0.2638095","3.1701095","9.441509","0.003215114","-0.00961485","-0.004634848","","","",""
"10269","","","","","","","-16.089336","49.606926","-31.834614",""
"10270","-0.24945168","3.151058","9.441509","0.0042803744","-0.010680132","-0.0014390543","","","",""
"10271","","","","","","","","","",""
"10272","-0.23509382","3.1272435","9.507632","0.008541426","-0.013875939","-0.0035695785","","","",""
"10275","-0.23988143","3.1748736","9.5170765","0.01067195","-0.0064191115","-0.0025043122","","","",""
"10277","-0.27338713","3.1462967","9.450954","0.012802474","-0.006419129","-0.0035695739","","","",""
"10279","","","","","","","-16.512827","49.631603","-31.462864",""
"10280","-0.28774738","3.1367712","9.446231","0.015998261","-0.005353883","-0.003569571","","","",""
"10282","-0.28774863","3.1653492","9.526523","0.020259313","-0.0042886366","-3.7377776E-4","","","",""
"10285","-0.2877499","3.1748757","9.4840145","0.02025931","-2.7600327E-5","0.0017567521","","","",""
"10287","-0.23988767","3.2082167","9.427338","0.024520362","0.0074292272","6.9149135E-4","","","",""
"10289","","","","","","","-16.677505","50.003998","-31.15134",""
"10290","-0.32125688","3.1605883","9.44623","0.026650885","0.004233419","0.004952547","","","",""
"10292","-0.33083075","3.1605885","9.441506","0.027716147","0.0052986657","0.0028220231","","","",""
"10295","-0.3116866","3.151063","9.3517685","0.029846672","0.007429175","0.0049525527","","","",""
"10297","-0.32126054","3.1367748","9.328154","0.03197719","0.010624949","0.0038872922","","","",""
"10299","","","","","","","-16.754734","49.826317","-31.129044",""
"10300","-0.26382563","3.141538","9.375384","0.028781401","0.015951248","0.0049525574","","","",""
"10302","-0.26861322","3.2082198","9.328153","0.02665087","0.012755441","0.010278878","","","",""
"10304","-0.21596466","3.2225096","9.295092","0.025585605","0.010624897","0.009213617","","","",""
"10307","-0.24947032","3.1558282","9.238415","0.023455074","0.015951196","0.010278883","","","",""
"10309","-0.24468522","3.1796436","9.347045","0.019194016","0.018081706","0.009213623","-16.727615","49.641","-31.12238",""
"10311","","","","","","","","","",""
"10312","-0.24468647","3.2796662","9.328152","0.01812875","0.017016426","0.008148361","","","",""
"10314","-0.28297842","3.2177482","9.257307","0.011737166","0.015951145","0.009213627","","","",""
"10317","-0.24468891","3.2510896","9.24786","0.011737163","0.012755336","0.0060178395","","","",""
"10319","-0.2207584","3.2701416","9.262028","0.00854137","0.0127553195","0.007083106","-16.564024","50.005188","-31.630804",""
"10322","-0.20161429","3.293957","9.266751","0.0053455755","0.011690037","0.0070831086","","","",""
"10324","-0.23990631","3.336824","9.243135","0.004280309","0.0063637034","0.0070831105","","","",""
"10327","-0.23990756","3.284432","9.252583","0.001084516","0.0042331587","0.0070831133","","","",""
"10329","-0.24469516","3.227277","9.290365","-0.0010460143","0.0021026144","0.007083116","-16.378313","49.441586","-31.626444",""
"10332","-0.23991007","3.270144","9.313981","0.003215037","-2.793048E-5","0.0060178554","","","",""
"10334","-0.2877747","3.2463298","9.332872","-0.0010460198","-2.794771E-5","0.006017857","","","",""
"10337","-0.24469885","3.2225158","9.356488","1.9240368E-5","-0.008550073","0.0049525965","","","",""
"10339","-0.2399138","3.1891756","9.323425","1.9237574E-5","-0.0064195637","0.006017863","-16.06113","48.685028","-31.63105",""
"10342","-0.23991506","3.1844132","9.403718","0.002149762","-0.004289054","0.004952602","","","",""
"10344","-0.24948896","3.2177541","9.365932","0.0032150222","-0.0074848616","0.007083131","","","",""
"10347","-0.21119945","3.2320433","9.370655","0.005345546","-0.011745933","0.009213661","","","",""
"10349","-0.23991875","3.2034664","9.3989935","0.0032150166","-0.01174595","0.013474718","-16.007977","49.05097","-31.814621",""
"10351","","","","","","","","","",""
"10352","-0.18248384","3.179652","9.403717","0.00534554","-0.012811231","0.0113441935","","","",""
"10354","-0.20641685","3.1939414","9.3989935","0.004280274","-0.014941776","0.013474723","","","",""
"10357","-0.18727268","3.1748903","9.455668","0.006410798","-0.01707232","0.011344198","","","",""
"10359","-0.16334218","3.1891794","9.446223","0.002149741","-0.014941811","0.011344201","-16.065262","49.418655","-31.673342",""
"10362","-0.19206154","3.18918","9.450946","0.0053455285","-0.017072355","0.012409467","","","",""
"10364","-0.16334462","3.2129953","9.460392","0.006410789","-0.013876582","0.014539997","","","",""
"10367","-0.1250551","3.2129958","9.450945","0.009606577","-0.013876599","0.014539999","","","",""
"10369","-0.12505636","3.2272851","9.531237","0.011737101","-0.01174609","0.012409475","-16.196732","49.61162","-31.664373",""
"10372","-0.13463031","3.2272856","9.545405","0.0128023615","-0.0064197895","0.013474741","","","",""
"10374","-0.115486145","3.1987083","9.484005","0.013867622","-0.009615596","0.011344217","","","",""
"10377","-0.07719664","3.1939456","9.498174","0.011737092","-0.0032240334","0.008148429","","","",""
"10379","-0.10591597","3.1796572","9.479282","0.012802353","-0.002158787","0.008148431","-16.403475","50.366432","-31.98462",""
"10382","-0.12027625","3.184421","9.469835","0.013867613","-2.8277864E-5","0.008148434","","","",""
"10384","-0.08198665","3.1510806","9.441497","0.013867611","0.002102232","0.0092137","","","",""
"10387","-0.120278694","3.151081","9.422605","0.015998134","0.0010369512","0.0049526487","","","",""
"10389","-0.120279945","3.1987112","9.44622","0.013867605","0.0031674607","0.0028221237","-16.379398","50.178165","-31.823343",""
"10391","","","","","","","","","",""
"10392","-0.10592216","3.2511044","9.450942","0.017063392","0.004232707","0.00388739","","","",""
"10394","-0.14421421","3.2415788","9.469834","0.017063389","0.0031674262","0.0038873928","","","",""
"10397","-0.14421546","3.2368166","9.422604","0.015998123","0.0021021455","0.002822132","","","",""
"10399","-0.15378942","3.2130022","9.469834","0.017063383","0.0021021278","-3.7365576E-4","-16.047272","49.224503","-31.202847",""
"10402","-0.1202862","3.270158","9.389542","0.014932853","0.0042326376","-0.0014389174","","","",""
"10404","-0.17293727","3.2463436","9.403711","0.01173706","0.00423262","0.001756876","","","",""
"10407","-0.17772481","3.2082405","9.398988","0.013867584","0.0042326027","-0.0014389118","","","",""
"10409","-0.19208512","3.2130044","9.398988","0.011737054","-0.0010937323","-0.0025041725","-15.891724","48.843273","-31.050539",""
"10411","-0.17772731","3.2034788","9.432048","0.0074759964","0.0031673042","-0.0014389062","","","",""
"10414","-0.12507874","3.1987164","9.446218","0.012802311","0.0042325505","-3.7364085E-4","","","",""
"10416","-0.1442254","3.2749243","9.40371","0.012802308","0.007428324","-0.002504165","","","",""
"10419","-0.14901301","3.2368212","9.413156","0.013867569","0.007428307","-0.0014388987","-16.097382","48.861507","-31.173885",""
"10421","-0.18730502","3.174903","9.394262","0.015998093","0.0095588155","6.9163105E-4","","","",""
"10424","-0.18730627","3.1749034","9.361202","0.018128617","0.013819853","6.916329E-4","","","",""
"10426","-0.16337577","3.1844301","9.408431","0.017063351","0.017015627","0.0028221628","","","",""
"10429","-0.17773607","3.1987193","9.370646","0.019193875","0.014885082","0.0038874291","-16.280052","49.42805","-31.332853",""
"10431","-0.19688272","3.2177713","9.356478","0.020259136","0.01062401","0.0060179587","","","",""
"10434","-0.23517475","3.213009","9.323417","0.020259133","0.009558729","0.0038874347","","","",""
"10436","-0.23038958","3.2082462","9.328139","0.021324392","0.0063629216","0.0049527","","","",""
"10439","-0.25910896","3.2511137","9.31397","0.022389654","0.0052976403","0.008148493","-16.220806","49.79989","-31.825645",""
"10441","-0.23517843","3.1939585","9.3045225","0.02558544","0.003167096","0.0070832325","","","",""
"10444","-0.24475239","3.222537","9.262016","0.024520176","0.0052976054","0.0070832353","","","",""
"10446","-0.18731746","3.2368262","9.3045225","0.025585435","0.0031670616","0.014540082","","","",""
"10449","-0.24475488","3.19396","9.309245","0.024520168","0.0010365167","0.013474821","-16.66533","50.01578","-31.76978",""
"10451","-0.24954249","3.1939607","9.2714615","0.024520166","0.0010364995","0.014540087","","","",""
"10454","-0.21125299","3.2273018","9.210062","0.022389635","-0.0042898357","0.01454009","","","",""
"10456","-0.19689511","3.2273023","9.243121","0.023454897","-0.0053551164","0.017735882","","","",""
"10459","-0.22082807","3.2368288","9.22423","0.02238963","-0.009616188","0.016670622","-16.512827","49.631603","-31.462864",""
"10461","-0.19689761","3.2606437","9.1722765","0.0202591","-0.0117467325","0.014540098","","","",""
"10464","-0.1825398","3.2558818","9.2383995","0.020259097","-0.013877276","0.0145401005","","","",""
"10466","-0.19690011","3.270171","9.262013","0.013867512","-0.017073084","0.011344313","","","",""
"10469","-0.18254231","3.2511199","9.285628","0.0138675105","-0.016007839","0.011344315","-15.701014","49.02215","-31.5523",""
"10471","-0.19690262","3.2701719","9.323413","0.007475925","-0.014942592","0.011344317","","","",""
"10474","-0.19690387","3.2749357","9.323413","0.0032148685","-0.01494261","0.007083266","","","",""
"10476","-0.22083676","3.2701728","9.29035","-0.0010461884","-0.018138418","0.004952742","","","",""
"10479","-0.15861548","3.2654107","9.313966","1.9071798E-5","-0.017073171","0.0038874804","-15.468234","48.818596","-31.422289",""
"10481","-0.1634031","3.2987514","9.328135","-0.0031767215","-0.013877398","0.0017569561","","","",""
"10484","-0.13468629","3.2939892","9.380087","-0.0053072516","-0.010681625","-3.735682E-4","","","",""
"10486","-0.182551","3.3130412","9.408425","-0.010633572","-0.0064205886","-0.0025040924","","","",""
"10489","-0.22084302","3.2939901","9.436763","-0.010633575","0.0010362387","-0.004634617","-15.722046","49.21336","-31.868183",""
"10491","-0.1729808","3.2558868","9.436763","-0.012764105","0.004232012","-0.008895669","","","",""
"10494","-0.20648652","3.2701762","9.422593","-0.0148946345","0.0042319945","-0.011026193","","","",""
"10496","-0.23520583","3.265414","9.408424","-0.018090429","0.005297241","-0.012091454","","","",""
"10499","-0.20170261","3.1844442","9.403702","-0.015959904","0.0052972236","-0.009960924","-16.029009","49.242176","-32.130505",""
"10501","-0.21127662","3.1796815","9.450932","-0.014894644","0.0074277334","-0.012091449","","","",""
"10504","-0.19213246","3.1749191","9.432038","-0.019155702","0.01168877","-0.011026183","","","",""
"10506","-0.23521082","3.0939496","9.49816","-0.01809044","0.012754016","-0.009960917","","","",""
"10509","-0.2782892","3.1177647","9.49816","-0.018090444","0.011688735","-0.009960914","-16.512827","49.631603","-31.462864",""
"10511","-0.25435868","3.1749208","9.479268","-0.018090446","0.017015036","-0.011026175","","","",""
"10514","-0.2926507","3.1177657","9.422591","-0.017025186","0.020210808","-0.006765119","","","",""
"10516","-0.2974383","3.117766","9.446207","-0.014894662","0.020210791","-0.0014387982","","","",""
"10519","-0.32137132","3.0844262","9.479268","-0.01063361","0.019145511","6.9173164E-4","-16.650385","49.818676","-31.144676",""
"10521","-0.32137257","3.0510857","9.436759","-0.007437824","0.02127602","-0.0014387926","","","",""
"10523","-0.3022284","3.098716","9.403699","-0.009568352","0.02021074","0.004952791","","","",""
"10526","-0.30701602","3.1082425","9.460375","-0.008503092","0.017014932","0.009213847","","","",""
"10528","-0.27351278","3.065376","9.460374","-0.0031767779","0.013819124","0.0124096405","","","",""
"10529","","","","","","","-16.4525","49.266857","-31.758755",""
"10531","-0.27351403","3.07014","9.465097","1.9009865E-5","0.014884369","0.016670698","","","",""
"10533","-0.26394257","3.1368217","9.521773","0.004280061","0.011688562","0.018801227","","","",""
"10536","-0.27351654","3.1463482","9.512327","0.008541112","0.01062328","0.020931756","","","",""
"10538","-0.25437236","3.1368227","9.469819","0.012802163","0.009558","0.023062287","","","",""
"10539","","","","","","","-16.35728","49.250378","-31.310556",""
"10541","-0.24480093","3.0891933","9.432035","0.013867425","0.007427456","0.024127552","","","",""
"10543","-0.25437486","3.1415863","9.441481","0.019193739","0.00210112","0.026258083","","","",""
"10546","-0.3022396","3.1749277","9.413142","0.022389526","0.0010358392","0.026258085","","","",""
"10548","-0.2543773","3.1606393","9.375358","0.02452005","0.001035822","0.029453877","","","",""
"10549","","","","","","","-16.000204","49.584553","-31.077196",""
"10551","-0.22566044","3.1558766","9.389527","0.027715838","-0.0032252492","0.02945388","","","",""
"10553","-0.2113027","3.1749291","9.351742","0.030911626","-0.003225267","0.02838862","","","",""
"10556","-0.2160903","3.2225592","9.280896","0.02984636","-0.005355811","0.029453887","","","",""
"10558","-0.23045056","3.2225597","9.295065","0.029846357","-0.0053558284","0.02412757","","","",""
"10559","","","","","","","-15.773241","49.586945","-32.036125",""
"10561","-0.2065201","3.2416117","9.389526","0.029846355","-0.0042905826","0.0262581","","","",""
"10563","-0.19216229","3.2177975","9.332849","0.029846352","-0.0074863904","0.024127575","","","",""
"10566","-0.1969499","3.2606647","9.337571","0.022389503","-0.0064211446","0.025192842","","","",""
"10568","-0.16823304","3.2463763","9.342295","0.020258972","-0.0042906348","0.025192844","","","",""
"10569","","","","","","","-15.745035","48.665047","-31.832558",""
"10571","-0.20173869","3.2320879","9.318679","0.022389496","-0.0032253885","0.02306232","","","",""
"10573","-0.19216724","3.2368517","9.36591","0.020258967","-0.0021601422","0.021997059","","","",""
"10576","-0.19695485","3.2559037","9.342294","0.018128438","-0.0032254234","0.021997062","","","",""
"10578","-0.17302439","3.2273266","9.318678","0.014932644","0.0031661405","0.019866537","","","",""
"10579","","","","","","","-15.93379","49.225697","-31.68231",""
"10581","-0.16345286","3.23209","9.33757","0.010671586","0.0052966503","0.01986654","","","",""
"10583","-0.17781317","3.213039","9.295062","0.008541056","0.005296633","0.01667075","","","",""
"10586","-0.17781442","3.2463799","9.337569","0.007475789","0.00955767","0.014540227","","","",""
"10588","-0.18260203","3.222566","9.313954","0.006410523","0.010622915","0.015605493","-15.859604","49.400425","-31.549995",""
"10591","-0.15388522","3.232092","9.262001","0.0021494662","0.010622898","0.016670758","","","",""
"10593","-0.20174995","3.2225668","9.290338","0.0032147265","0.010622881","0.017736025","","","",""
"10596","-0.22089654","3.1844637","9.337568","0.0010841966","0.0095576","0.017736027","","","",""
"10598","-0.17782068","3.1987529","9.332845","-0.004242124","0.012753373","0.016670767","-15.25649","48.806255","-31.608166",""
"10601","-0.15867646","3.2368572","9.356461","-0.0031768635","0.012753356","0.01667077","","","",""
"10603","-0.1251733","3.2320943","9.30923","-0.0010463393","0.0063617574","0.0188013","","","",""
"10606","-0.16825166","3.227332","9.351736","-0.0031768696","0.0074270032","0.021997092","","","",""
"10608","-0.15868022","3.2082803","9.361183","-0.0031768724","0.014883831","0.016670777","-15.732262","49.9411","-31.601255",""
"10611","-0.19218594","3.2463846","9.370628","-0.0031768752","0.01701434","0.017736044","","","",""
"10613","-0.16346908","3.2606738","9.375351","-0.0010463514","0.017014323","0.016670784","","","",""
"10616","-0.11560685","3.2511487","9.365905","-0.004242145","0.015949043","0.01773605","","","",""
"10618","-0.14911257","3.246386","9.361182","-0.0021116205","0.013818498","0.016670788","-16.305212","50.352898","-31.691032",""
"10621","-0.1443274","3.2702012","9.3470125","1.8903229E-5","0.01381848","0.015605527","","","",""
"10623","-0.12518325","3.2606757","9.384796","0.001084164","0.010622673","0.014540266","","","",""
"10626","-0.11561179","3.2940173","9.37535","0.0042799516","0.010622655","0.015605532","","","",""
"10628","-0.11082672","3.2797291","9.332842","0.007475739","0.00849211","0.014540271","-15.960911","49.411015","-31.688974",""
"10630","-0.14911877","3.2606773","9.31395","0.009606264","0.0084920935","0.008148693","","","",""
"10631","","","","","","","","","",""
"10633","-0.13476095","3.2797298","9.26672","0.010671524","0.0063615493","0.011344486","","","",""
"10635","-0.12997586","3.2844932","9.280889","0.010671521","0.0042310045","0.013475016","","","",""
"10638","-0.15869516","3.2273386","9.219488","0.010671519","0.004230987","0.013475018","-15.930746","49.228645","-31.836918",""
"10640","-0.115619235","3.2035244","9.228933","0.011736779","0.0010351794","0.009213966","","","",""
"10643","-0.14433861","3.3083098","9.224212","0.009606249","0.0010351617","0.009213969","","","",""
"10645","-0.1299808","3.2654438","9.295056","0.008540982","-0.0064217","0.007083445","","","",""
"10648","-0.15391381","3.2082884","9.2383795","0.009606243","-0.0074869813","0.00814871","-16.095425","49.601032","-31.525394",""
"10650","-0.13476965","3.2606814","9.219487","0.006410449","-0.011748053","0.009213977","","","",""
"10653","-0.0964801","3.2606819","9.205318","0.0021493922","-0.017074388","0.006018189","","","",""
"10655","-0.09169501","3.2844973","9.210041","1.886225E-5","-0.013878614","0.0038876648","","","",""
"10658","-0.1539188","3.2797348","9.228931","-0.0063727223","-0.01600916","0.002822404","-16.1757","49.42041","-31.348486",""
"10660","-0.14913371","3.2702093","9.22421","-0.010633779","-0.019204967","0.0038876694","","","",""
"10663","-0.13956225","3.2178173","9.200594","-0.010633782","-0.014943929","0.0038876722","","","",""
"10665","-0.1395635","3.2702103","9.271439","-0.01809063","-0.016009212","0.001757148","","","",""
"10668","-0.14913747","3.2321072","9.347008","-0.021286422","-0.014943965","6.9188717E-4","-16.109283","49.061558","-31.9536",""
"10670","-0.11563424","3.2368708","9.290331","-0.02235169","-0.01707451","-3.733745E-4","","","",""
"10671","","","","","","","","","",""
"10673","-0.15392625","3.2130566","9.342284","-0.026612746","-0.01813979","0.0017571554","","","",""
"10675","-0.18743192","3.2511606","9.394237","-0.02980854","-0.022400862","6.918946E-4","","","",""
"10678","-0.18743317","3.2130575","9.413129","-0.029808544","-0.019205088","-3.733661E-4","-16.032053","49.23923","-31.975897",""
"10680","-0.20179348","3.213058","9.441466","-0.03087381","-0.019205106","0.0038876908","","","",""
"10683","-0.22094008","3.2368734","9.441466","-0.031939078","-0.013878806","0.0060182195","","","",""
"10685","-0.19700962","3.2225852","9.507588","-0.033004344","-0.013878822","0.002822432","","","",""
"10688","-0.1635064","3.2654521","9.545372","-0.029808555","-0.0074872593","0.0028224348","-16.30717","49.613373","-31.339518",""
"10690","-0.16829401","3.1892452","9.564264","-0.02767803","-0.0010956955","0.0049529644","","","",""
"10693","-0.13479078","3.1892457","9.521756","-0.02661277","0.00849166","0.0060182298","","","",""
"10695","-0.048637778","3.1892462","9.545371","-0.023416983","0.0074263783","0.0038877057","","","",""
"10698","-0.09171614","3.1701953","9.635109","-0.01915593","0.013817942","0.0038877085","-16.289183","49.419212","-30.869026",""
"10700","-0.09171739","3.1701958","9.554818","-0.020221198","0.020209506","-3.7334283E-4","","","",""
"10703","-0.07257326","3.1701963","9.587877","-0.015960148","0.022340015","0.0017571871","","","",""
"10705","-0.08693354","3.1844854","9.583156","-0.013829622","0.023405261","6.9192535E-4","","","",""
"10708","-0.07257576","3.17496","9.54537","-0.009568572","0.023405245","-0.0025038624","-16.416521","48.87854","-30.817766",""
"10710","-0.09650876","3.1797233","9.479249","-0.004242257","0.022339962","-0.003569123","","","",""
"10711","","","","","","","","","",""
"10713","-0.10608265","3.1654348","9.446186","-0.0021117327","0.022339946","-0.0014385933","","","",""
"10715","-0.11565657","3.2273538","9.403679","1.8791005E-5","0.026600983","-0.0035691184","","","",""
"10718","-0.08215338","3.2273543","9.4084015","0.0010840518","0.021274649","-0.0046343794","-16.602234","49.442142","-30.822128",""
"10720","-0.11565907","3.1987772","9.422569","1.8784951E-5","0.022339894","-0.0035691129","","","",""
"10723","-0.1730965","3.2273552","9.398954","0.0032145728","0.021274613","-0.004634374","","","",""
"10725","-0.13959333","3.1940148","9.347002","0.005345097","0.017013542","-0.0035691073","","","",""
"10728","-0.15873994","3.1987786","9.351725","0.0053450936","0.013817733","-0.0025038419","-16.287222","50.15874","-31.220537",""
"10730","-0.14916855","3.2035418","9.384785","0.0053450908","0.009556662","-0.00569963","","","",""
"10733","-0.1826742","3.2130682","9.332831","0.005345088","0.008491381","-0.005699627","","","",""
"10735","-0.15395734","3.2083056","9.29977","0.006410348","0.008491363","-0.0056996243","","","",""
"10738","-0.1635313","3.217832","9.342278","0.007475609","0.008491347","-0.004634359","-15.889769","49.5828","-31.40205",""
"10740","-0.19225067","3.2416477","9.33283","0.007475606","0.0052955383","-0.004634356","","","",""
"10742","-0.19703826","3.232122","9.318661","0.008540867","0.008491311","-0.005699617","","","",""
"10745","-0.16353498","3.2083077","9.280877","0.010671391","0.009556558","-0.0046343505","","","",""
"10747","-0.2209724","3.232123","9.31866","0.011736652","0.008491277","-0.003569084","","","",""
"10748","","","","","","","-15.704058","49.019203","-31.397688",""
"10750","-0.24011907","3.2654643","9.280876","0.007475594","0.01168705","-0.0025038186","","","",""
"10751","","","","","","","","","",""
"10752","-0.23054762","3.2607017","9.214753","0.0042798007","0.009556506","-0.0025038158","","","",""
"10755","-0.24012157","3.2892804","9.257261","0.008540852","0.004230171","-3.7328602E-4","","","",""
"10757","-0.25926822","3.274992","9.25726","0.0064103217","0.0031648898","-0.0025038102","","","",""
"10758","","","","","","","-15.608837","49.00272","-30.949493",""
"10760","-0.23533772","3.294044","9.1628","0.0074755824","0.0031648725","-0.0046343356","","","",""
"10762","-0.20662092","3.3416743","9.139184","0.0042797886","-0.00429199","-0.0056995964","","","",""
"10765","-0.21140845","3.294045","9.110846","0.0010839954","-0.0074877976","-0.0035690663","","","",""
"10767","-0.23534141","3.3035717","9.186414","-0.0031770614","-0.008553078","-0.0046343273","","","",""
"10768","","","","","","","-16.181786","49.414516","-31.039267",""
"10770","-0.20662461","3.2797573","9.228921","-0.007438119","-0.016009942","-0.0035690607","","","",""
"10772","-0.23055756","3.2845204","9.13446","-0.0138297025","-0.018140486","-0.0046343226","","","",""
"10775","-0.25927693","3.3416767","9.162798","-0.020221287","-0.021336293","-0.006764847","","","",""
"10777","-0.24491912","3.2988102","9.224197","-0.02341708","-0.022401573","-0.008895371","","","",""
"10778","","","","","","","-16.20282","49.605732","-31.35515",""
"10780","-0.2066296","3.3178627","9.233643","-0.02554761","-0.027727911","-0.008895368","","","",""
"10782","-0.17791274","3.2749968","9.238366","-0.031939197","-0.033054244","-0.008895366","","","",""
"10785","-0.19705935","3.2892861","9.2903185","-0.036200255","-0.034119524","-0.011025891","","","",""
"10787","-0.20184694","3.2559457","9.384779","-0.03726552","-0.03731533","-0.008895361","","","",""
"10788","","","","","","","-16.30717","49.613373","-31.339518",""
"10790","-0.12048026","3.2845237","9.417841","-0.03939605","-0.03625009","-0.009960622","","","",""
"10791","","","","","","","","","",""
"10792","-0.13962692","3.2321317","9.474516","-0.04152658","-0.03838063","-0.012091146","","","",""
"10795","-0.16355988","3.1892657","9.4461775","-0.042591844","-0.03411959","-0.0152869355","","","",""
"10797","-0.13962942","3.217844","9.483961","-0.042591847","-0.031989086","-0.015286932","","","",""
"10798","","","","","","","-16.449455","49.269802","-31.913366",""
"10800","-0.14441702","3.1940298","9.540638","-0.040461328","-0.02772805","-0.016352193","","","",""
"10802","-0.14920463","3.1702158","9.6350975","-0.037265535","-0.024532275","-0.017417453","","","",""
"10805","-0.14441946","3.1940308","9.578422","-0.036200278","-0.023467029","-0.015286924","","","",""
"10807","-0.15877971","3.1749797","9.611483","-0.03620028","-0.017075464","-0.016352186","","","",""
"10808","","","","","","","-16.006018","49.790493","-32.16613",""
"10810","-0.13963562","3.155928","9.649267","-0.03513502","-0.010683901","-0.014221655","","","",""
"10812","-0.13963687","3.136877","9.620928","-0.030873967","-0.004292337","-0.014221652","","","",""
"10815","-0.120492764","3.1749814","9.653989","-0.028743442","0.0020992262","-0.016352177","","","",""
"10817","-0.17793013","3.151167","9.635097","-0.025547655","0.007425527","-0.013156384","","","",""
"10818","","","","","","","-15.901943","49.57102","-30.783611",""
"10820","-0.18271774","3.1464045","9.630373","-0.02022134","0.012751827","-0.012091118","","","",""
"10822","-0.16835992","3.1987975","9.644543","-0.017025553","0.018078128","-0.011025852","","","",""
"10825","-0.20186564","3.1368794","9.639819","-0.011699237","0.020208636","-0.008895322","","","",""
"10827","-0.17793512","3.1749837","9.587866","-0.0042423964","0.025534937","-0.006764793","","","",""
"10828","","","","","","","-16.036457","49.761036","-30.62003",""
"10830","-0.17793638","3.2130878","9.56425","-0.0010466084","0.026600184","-0.008895317","","","",""
"10831","","","","","","","","","",""
"10832","-0.23058745","3.1940362","9.545358","0.0010839158","0.022339113","-0.0056995237","","","",""
"10835","-0.23537506","3.1416442","9.512296","0.0074754935","0.024469621","-0.0035689936","","","",""
"10837","-0.17315373","3.1368818","9.474512","0.011736546","0.027665395","-0.0035689909","","","",""
"10838","","","","","","","-15.917974","50.504704","-31.605618",""
"10840","-0.27366832","3.1797488","9.483957","0.015997596","0.024469588","-0.001438462","","","",""
"10842","-0.22101969","3.1273568","9.394219","0.015997592","0.023404306","-3.7319568E-4","","","",""
"10845","-0.22102094","3.1988018","9.361158","0.020258645","0.022339026","0.0017573342","","","",""
"10847","-0.22580855","3.2035651","9.34699","0.021323906","0.018077955","0.003887864","","","",""
"10848","","","","","","","-15.994118","49.590446","-31.386415",""
"10849","-0.24016885","3.2035656","9.22419","0.019193375","0.010621091","0.004953129","","","",""
"10852","-0.25931552","3.1892772","9.205297","0.022389162","0.004229493","0.008148923","","","",""
"10854","-0.24017136","3.2273812","9.2714205","0.023454422","0.001033685","0.008148925","","","",""
"10857","-0.21624084","3.1940413","9.276141","0.014932312","-0.0042926497","0.008148928","","","",""
"10858","","","","","","","-16.056404","49.215664","-30.739016",""
"10859","-0.19231033","3.1607013","9.214742","0.015997572","-0.011749512","0.013475249","","","",""
"10862","-0.20188428","3.2083309","9.280865","0.012801779","-0.01494532","0.009214196","","","",""
"10864","-0.19709918","3.2607238","9.30448","0.009605985","-0.018141128","0.0060184086","","","",""
"10867","-0.1588096","3.2464356","9.337541","0.01173651","-0.020271672","0.009214202","","","",""
"10868","","","","","","","-16.104555","49.592194","-31.061563",""
"10869","-0.14923821","3.2559621","9.29031","0.011736507","-0.020271689","0.008148941","","","",""
"10871","","","","","","","","","",""
"10872","-0.14923947","3.2607255","9.280864","0.011736504","-0.022402234","0.0070836795","","","",""
"10874","-0.21146324","3.2416744","9.342262","0.0106712375","-0.025598042","0.003887892","","","",""
"10877","-0.19231902","3.1892824","9.365877","0.0064101797","-0.025598058","0.0028226313","","","",""
"10878","","","","","","","-15.85243","48.669743","-31.662317",""
"10879","-0.16838852","3.1797569","9.380047","0.0074754404","-0.027728606","6.9210696E-4","","","",""
"10882","-0.13488534","3.217861","9.328094","0.006410174","-0.02453283","0.0017573733","","","",""
"10884","-0.1444593","3.174995","9.398938","0.0042796438","-0.018141266","-3.731519E-4","","","",""
"10887","-0.13488784","3.1988103","9.356431","1.8587045E-5","-0.020271812","6.921144E-4","","","",""
"10888","","","","","","","-15.936834","49.22275","-31.527699",""
"10889","-0.18275256","3.1940475","9.361154","0.0032143749","-0.017076038","-3.7314632E-4","","","",""
"10892","-0.18275382","3.1654704","9.365876","0.0010838446","-0.012815001","-0.003568934","","","",""
"10894","-0.15403701","3.2131007","9.375322","1.8578197E-5","-0.011749756","-0.0014384051","","","",""
"10897","-0.21147437","3.2083378","9.389491","-0.0010466881","-0.010684509","-3.7313887E-4","","","",""
"10898","","","","","","","-16.30717","49.613373","-31.339518",""
"10899","-0.20190299","3.1702352","9.34226","-0.0021119548","-0.010684526","-0.002503663","","","",""
"10902","-0.16839977","3.2035758","9.375321","-0.0031772212","-0.008554017","-0.0014383968","","","",""
"10904","-0.17797372","3.1892877","9.422551","-0.004242488","-0.0032277163","-0.003568921","","","",""
"10907","-0.19712032","3.1416583","9.365874","-0.006373018","-0.00216247","-0.0014383921","","","",""
"10908","","","","","","","-16.19869","48.872093","-31.312859",""
"10909","-0.23062599","3.1940513","9.380044","-0.006373021","-3.1960313E-5","-0.0035689163","","","",""
"10911","","","","","","","","","",""
"10912","-0.21148188","3.1750002","9.361152","-0.011699341","-0.004293032","-0.005699441","","","",""
"10914","-0.21148314","3.184527","9.370597","-0.011699344","-0.0032277857","-0.0035689108","","","",""
"10917","-0.25934786","3.1416605","9.295029","-0.010634083","-0.00535833","-0.003568909","","","",""
"10918","","","","","","","-16.181786","49.414516","-31.039267",""
"10919","-0.2402037","3.2083423","9.295029","-0.012764614","-0.0053583477","-0.0056994334","","","",""
"10922","-0.24499129","3.2464464","9.365872","-0.014895143","-0.008554155","-0.0035689033","","","",""
"10924","-0.25456524","3.1892917","9.384765","-0.0191562","-0.010684701","-3.7311E-4","","","",""
"10927","-0.27371186","3.2131069","9.431995","-0.019156205","-0.0074889264","-3.731072E-4","","","",""
"10928","","","","","","","-16.373587","49.97223","-30.734407",""
"10929","-0.24020863","3.18453","9.408379","-0.014895152","-0.005358417","-0.0014383688","","","",""
"10932","-0.22585082","3.203582","9.417826","-0.017025681","-0.0074889613","6.92161E-4","","","",""
"10934","-0.21149307","3.2369235","9.422548","-0.019156212","-0.005358452","0.0017574274","","","",""
"10937","-0.24021238","3.213109","9.422548","-0.015960425","-0.004293205","0.0017574301","","","",""
"10938","","","","","","","-16.131676","49.77751","-31.068228",""
"10939","-0.22585458","3.1797688","9.44144","-0.012764636","-0.0032279594","6.921684E-4","","","",""
"10942","-0.25936028","3.1607175","9.460332","-0.011699377","-3.2186625E-5","-3.730923E-4","","","",""
"10944","-0.18277997","3.1845329","9.455608","-0.010634116","-3.2203854E-5","6.92174E-4","","","",""
"10947","-0.22107191","3.1988223","9.465055","-0.008503592","0.004228833","-0.0014383502","","","",""
"10948","","","","","","","-16.552122","49.805138","-30.85109",""
"10949","-0.23543222","3.1845338","9.512283","-0.005307805","0.007424606","-3.7308392E-4","","","",""
"10951","","","","","","","","","",""
"10952","-0.19235636","3.1845343","9.493392","-0.004242544","0.0063593253","-0.0014383455","","","",""
"10954","-0.21150301","3.2226384","9.517007","-0.004242547","0.010620362","-0.0046341335","","","",""
"10956","-0.23064962","3.2416906","9.436714","-0.0021120228","0.011685608","-0.0056993943","","","",""
"10958","","","","","","","-16.647343","49.82162","-31.299284",""
"10959","-0.17800105","3.1988246","9.446161","1.8501363E-5","0.010620328","-0.006764655","","","",""
"10961","-0.20672041","3.1940618","9.455606","0.0032142887","0.0116855735","-0.0035688623","","","",""
"10964","-0.20672166","3.1511958","9.446161","-0.0010467682","0.01594661","-0.0046341233","","","",""
"10966","-0.19715016","3.1892998","9.431991","0.0032142831","0.01807712","-0.005699384","","","",""
"10968","","","","","","","-16.018194","49.77871","-31.547693",""
"10969","-0.25937393","3.2035892","9.436713","0.00321428","0.021272894","-0.0046341177","","","",""
"10971","-0.25458884","3.2655082","9.4225445","0.003214277","0.026599193","-0.004634115","","","",""
"10974","-0.2545901","3.275035","9.389483","0.0032142743","0.02766444","-0.004634113","","","",""
"10976","-0.3120275","3.2178798","9.337529","0.0064100614","0.025533896","-0.0014383195","","","",""
"10978","","","","","","","-16.447771","49.797497","-30.866722",""
"10979","-0.27852434","3.1845398","9.285576","0.005344795","0.02340335","-3.730532E-4","","","",""
"10981","-0.28809825","3.2035918","9.290298","0.006410056","0.020207543","-0.0025035774","","","",""
"10984","-0.24023603","3.2750368","9.252514","0.00854058","0.018076997","-3.7304853E-4","","","",""
"10986","-0.2928871","3.3083777","9.285575","0.0074753133","0.0116854","6.922178E-4","","","",""
"10988","","","","","","","-16.464674","49.255074","-31.140316",""
"10989","-0.288102","3.279801","9.228898","0.0032142566","0.0095548555","0.0028227477","","","",""
"10991","-0.29767594","3.2559865","9.219452","0.0064100437","-3.2534008E-5","0.0028227505","","","",""
"10994","-0.35032701","3.251224","9.299744","0.006410041","0.002097976","0.0060185436","","","",""
"10996","-0.28331932","3.2750394","9.252513","0.0021489842","-0.0042936224","0.009214336","","","",""
"10998","","","","","","","-16.08048","49.403927","-30.900291",""
"10999","-0.28810692","3.2464619","9.28085","-0.005307864","-0.009619957","0.010279602","","","",""
"11001","-0.25460377","3.2798033","9.313912","-0.0063731303","-0.0117505025","0.008149078","","","",""
"11004","-0.22588691","3.2845664","9.309188","-0.009568923","-0.016011573","0.010279608","","","",""
"11006","-0.19238375","3.260752","9.290296","-0.011699453","-0.01920738","0.01027961","","","",""
"11008","","","","","","","-16.444727","49.80044","-31.02133",""
"11009","-0.18759865","3.2655158","9.337526","-0.01276472","-0.0192074","0.009214349","","","",""
"11011","-0.24503607","3.2988567","9.413094","-0.013829986","-0.021337943","0.010279615","","","",""
"11014","-0.1923875","3.2559907","9.413094","-0.018091043","-0.020272696","0.008149091","","","",""
"11016","-0.14931163","3.2655172","9.42254","-0.018091047","-0.018142188","0.006018567","","","",""
"11018","","","","","","","-16.464674","49.255074","-31.140316",""
"11019","-0.16845818","3.2607543","9.427263","-0.017025786","-0.017076941","0.003888042","","","",""
"11021","-0.15410043","3.2464662","9.413093","-0.018091053","-0.017076958","-3.7300942E-4","","","",""
"11024","-0.15410168","3.2131262","9.498107","-0.020221582","-0.01494645","6.922569E-4","","","",""
"11026","-0.14931658","3.2226527","9.5689535","-0.015960531","-0.009620149","0.0017575233","","","",""
"11028","","","","","","","-15.817539","49.018005","-30.918228",""
"11029","-0.13017242","3.2750456","9.559506","-0.017025797","-0.007489639","-0.002503529","","","",""
"11031","-0.13017367","3.2083645","9.488661","-0.01383001","-0.005359129","-0.007829844","","","",""
"11034","-0.13974762","3.1654985","9.545337","-0.0116994865","0.0010324343","-0.008895105","","","",""
"11036","-0.13974887","3.2036028","9.564229","-0.011699488","0.0020976807","-0.004634048","","","",""
"11038","","","","","","","-15.602749","49.008614","-31.258713",""
"11039","-0.13975006","3.2321808","9.540612","-0.009568965","0.007423981","-0.0056993086","","","",""
"11041","-0.15411037","3.2036037","9.516997","-0.008503704","0.012750281","-0.011025624","","","",""
"11044","-0.18761604","3.1750264","9.545336","-0.008503707","0.012750264","-0.011025622","","","",""
"11046","-0.16368553","3.1512125","9.53589","-0.002112129","0.011684982","-0.011025619","","","",""
"11048","","","","","","","-15.803406","49.769318","-31.888178",""
"11049","-0.14932778","3.1797905","9.502828","-0.0042426595","0.017011283","-0.009960352","","","",""
"11051","-0.16847438","3.179791","9.483935","-0.002112135","0.020207057","-0.009960351","","","",""
"11054","-0.19719374","3.1655025","9.488659","-0.0010468743","0.021272302","-0.0056992937","","","",""
"11056","-0.21155405","3.184555","9.469767","0.0032141765","0.021272285","-0.005699291","","","",""
"11058","","","","","","","-16.155752","49.965782","-31.229506",""
"11059","-0.21155524","3.132163","9.512273","0.004279437","0.024468059","-0.0067645516","","","",""
"11061","-0.21634291","3.1702673","9.469766","0.0053446977","0.022337515","-0.004634022","","","",""
"11063","-0.2259168","3.1559784","9.469766","0.008540485","0.021272233","-3.7296565E-4","","","",""
"11066","-0.23070441","3.165505","9.460319","0.009605747","0.018076425","0.0028228278","","","",""
"11068","-0.21156025","3.122639","9.455595","0.0106710065","0.013815354","0.0028228306","-15.983303","50.126972","-30.803604",""
"11071","-0.2546386","3.1702693","9.427258","0.01599732","0.010619545","0.0028228334","","","",""
"11073","-0.28814426","3.1750324","9.417811","0.017062582","0.014880583","0.0028228352","","","",""
"11076","-0.22113664","3.1369293","9.398918","0.019193105","0.010619511","0.008149155","","","",""
"11078","-0.24028331","3.1416924","9.384749","0.025584685","0.010619493","0.009214422","-16.181786","49.414516","-31.039267",""
"11081","-0.2450709","3.1607451","9.389472","0.024519417","0.01168474","0.010279688","","","",""
"11083","-0.25464487","3.2083747","9.380025","0.02345415","0.010619459","0.008149164","","","",""
"11086","-0.225928","3.1893237","9.365856","0.025584675","0.011684705","0.01241022","","","",""
"11088","-0.2737927","3.1607466","9.332794","0.026649935","0.010619424","0.015606013","-16.283094","49.425106","-31.178246",""
"11091","-0.30251202","3.2083764","9.422532","0.02878046","0.011684671","0.013475489","","","",""
"11093","-0.24986345","3.1797993","9.365855","0.028780457","0.009554125","0.014540755","","","",""
"11096","-0.21157394","3.1940885","9.323348","0.028780455","0.009554109","0.0134754935","","","",""
"11098","-0.2450796","3.1845634","9.29501","0.027715188","0.006358301","0.015606023","-15.693241","49.555733","-30.814877",""
"11101","-0.23550814","3.2179043","9.337517","0.024519393","0.006358283","0.017736552","","","",""
"11103","-0.22115034","3.24172","9.276116","0.027715182","0.0052930024","0.019867083","","","",""
"11106","-0.2690151","3.222669","9.247778","0.025584651","0.0052929847","0.01773656","","","",""
"11108","-0.23072548","3.194091","9.257225","0.021323595","0.0063582314","0.01773656","-15.612967","49.736355","-30.991785",""
"11111","-0.22115403","3.184566","9.304454","0.022388855","0.0031624231","0.017736563","","","",""
"11113","-0.21636899","3.217907","9.20527","0.02132359","0.003162406","0.017736567","","","",""
"11116","-0.25944734","3.279826","9.224162","0.017062532","0.0031623882","0.013475515","","","",""
"11118","-0.22594413","3.2703004","9.209993","0.015997265","0.003162371","0.012410253","-16.146622","49.974617","-31.693336",""
"11121","-0.19244097","3.2083824","9.172208","0.012801472","-0.0021639639","0.011344993","","","",""
"11123","-0.216374","3.2417238","9.186377","0.0074751507","-0.0021639816","0.012410259","","","",""
"11126","-0.20201617","3.2988794","9.233607","0.004279357","-0.004294526","0.009214471","","","",""
"11128","-0.20201737","3.222673","9.271392","0.0010835638","-0.0053598066","0.00814921","-16.570112","49.9993","-31.32158",""
"11131","-0.22116397","3.2274363","9.247775","-0.0010469661","-0.0021640332","0.0038881584","","","",""
"11133","-0.23073792","3.2036219","9.228883","-0.0021122328","-0.0053598415","0.0038881612","","","",""
"11136","-0.23073918","3.2274373","9.22416","-0.008503817","-0.0032293317","0.0028229004","","","",""
"11138","-0.21159507","3.2131488","9.328066","-0.009569082","-0.005359876","6.923761E-4","-16.30717","49.613373","-31.339518",""
"11141","-0.23074168","3.232201","9.304451","-0.009569086","-0.008555684","6.92378E-4","","","",""
"11143","-0.18287946","3.179809","9.285559","-0.0127648795","-0.008555701","0.0017576443","","","",""
"11146","-0.19723977","3.2083871","9.280836","-0.014895409","-0.004294665","-0.002503407","","","",""
"11148","-0.22117272","3.213151","9.285558","-0.0116996225","-0.0010988914","-3.7287717E-4","-16.118416","49.05272","-31.489769",""
"11151","-0.19724227","3.2131515","9.3327875","-0.014895415","-0.0021641725","-0.0025034014","","","",""
"11153","-0.2738251","3.1988633","9.328065","-0.015960682","-0.0010989263","-0.0025033995","","","",""
"11156","-0.22596283","3.1893377","9.361127","-0.015960684","-0.001098944","-0.006764451","","","",""
"11158","-0.20681867","3.179812","9.351679","-0.015960688","-3.369723E-5","-0.008894975","-16.098469","49.598087","-31.370783",""
"11161","-0.19724722","3.1941013","9.39891","-0.021287007","0.0010315486","-0.0067644455","","","",""
"11163","-0.21639387","3.1798131","9.469755","-0.020221747","-3.3732154E-5","-0.0046339165","","","",""
"11165","-0.22118142","3.160762","9.436693","-0.021287015","0.0063578314","-0.00356865","","","",""
"11168","-0.20203732","3.1369476","9.398909","-0.026613334","0.009553605","-0.004633911","-15.519432","49.19218","-31.59023",""
"11170","-0.20682493","3.175052","9.455585","-0.026613338","0.012749378","-0.004633908","","","",""
"11173","-0.163749","3.1845784","9.446139","-0.025548076","0.014879888","-0.005699169","","","",""
"11175","-0.22597277","3.151238","9.450862","-0.026613344","0.01487987","-0.0025033762","","","",""
"11178","-0.22597396","3.1702905","9.394184","-0.02767861","0.018075643","-0.0014381099","-15.647858","49.388084","-31.735874",""
"11180","-0.2594797","3.1798165","9.436691","-0.027678613","0.021271417","-0.0035686342","","","",""
"11183","-0.24033552","3.198869","9.455584","-0.024482826","0.018075608","-3.7284085E-4","","","",""
"11185","-0.25469583","3.1941063","9.5122595","-0.022352302","0.024467172","-0.0014381025","","","",""
"11188","-0.22119261","3.1750553","9.488645","-0.024482831","0.027662946","-0.0014380997","-15.954823","49.41691","-31.998194",""
"11190","-0.20683487","3.1941073","9.474476","-0.019156517","0.022336612","0.0028229572","","","",""
"11191","","","","","","","","","",""
"11193","-0.21640882","3.1750562","9.483921","-0.020221783","0.020206066","0.0038882236","","","",""
"11195","-0.24034178","3.1560047","9.422521","-0.015960732","0.024467103","6.924357E-4","","","",""
"11198","-0.17333409","3.1702943","9.436689","-0.011699681","0.021271296","6.924376E-4","-15.817263","49.22984","-32.31638",""
"11200","-0.23555787","3.1845837","9.498089","-0.008503893","0.01914075","6.924404E-4","","","",""
"11203","-0.23555912","3.1750581","9.427243","-0.0042428426","0.022336524","0.004953497","","","",""
"11205","-0.2068423","3.170296","9.493366","-0.0053081093","0.018075451","0.002822973","","","",""
"11208","-0.21598199","3.1653607","9.502901","0.0010845012","0.014885708","0.0028220725","-16.216679","49.066254","-31.783356",""
"11210","-0.21119581","3.1272569","9.498178","0.004280291","0.013820441","0.006017863","","","",""
"11213","-0.17769152","3.174887","9.432055","0.007476081","0.010624649","0.008148391","","","",""
"11215","-0.22555517","3.1939385","9.351764","0.010671873","0.010624647","0.0060178638","","","",""
"11218","-0.21119635","3.2082274","9.450948","0.014932926","0.0063635902","0.009213654","-16.417608","49.615124","-31.014666",""
"11220","-0.23512818","3.160598","9.403718","0.015998188","0.007428851","0.010278919","","","",""
"11223","-0.23512836","3.2034645","9.328149","0.018128715","0.0042330585","0.010278919","","","",""
"11225","-0.23034218","3.2272797","9.398994","0.019193979","0.00529832","0.013474709","","","",""
"11228","-0.225556","3.2082276","9.398994","0.018128715","0.0031677908","0.01027892","-16.242113","49.779266","-30.743376",""
"11230","-0.21119712","3.1844134","9.370656","0.018128714","0.002102525","0.011344183","","","",""
"11231","","","","","","","","","",""
"11233","-0.23991536","3.222517","9.370656","0.021324504","-0.0021585315","0.014539974","","","",""
"11235","-0.21598384","3.1653614","9.342319","0.019193977","-0.0021585338","0.013474711","","","",""
"11238","-0.1968386","3.2510948","9.337595","0.014932923","-0.0010932727","0.011344184","-16.518913","49.625713","-31.153645",""
"11240","-0.2159842","3.2463315","9.31398","0.013867659","-0.0042890655","0.014539976","","","",""
"11243","-0.18247984","3.2415688","9.337595","0.010671867","-0.004289068","0.013474712","","","",""
"11245","-0.17769367","3.2939615","9.394271","0.00854134","-0.002158543","0.014539976","","","",""
"11248","-0.1920529","3.2368064","9.342319","0.00854134","-2.801849E-5","0.014539977","-16.128632","49.78046","-31.22284",""
"11250","-0.1633349","3.2129915","9.342319","0.006410812","-0.0021585473","0.011344186","","","",""
"11253","-0.15376243","3.2701468","9.389548","0.0021497577","-0.0010932862","0.009213659","","","",""
"11255","-0.14418992","3.255858","9.427332","-0.0010460333","0.0021025022","0.007083133","","","",""
"11258","-0.13940367","3.2939618","9.380102","-0.0031765604","0.0031677634","0.007083133","-15.917974","50.504704","-31.605618",""
"11260","-0.13940385","3.2796729","9.365932","-0.0063723517","0.0074288156","0.0038873425","","","",""
"11263","-0.11547227","3.2653842","9.422608","-0.006372352","0.0127551295","0.0049526067","","","",""
"11265","-0.13940421","3.2987247","9.417886","-0.007437616","0.012755128","0.00282208","","","",""
"11268","-0.12025898","3.2749104","9.3989935","-0.006372353","0.018081443","-0.0014389732","-15.843786","50.679432","-31.473303",""
"11270","-0.1298318","3.2606213","9.389547","-0.0063723535","0.014885651","-0.0025042368","","","",""
"11271","","","","","","","","","",""
"11272","-0.1489774","3.2558584","9.342318","-0.0053070905","0.01595091","-0.0014389732","","","",""
"11275","-0.14897758","3.2368069","9.403717","-0.0031765632","0.017016172","-0.0035694994","","","",""
"11277","-0.120259635","3.2558584","9.342318","-0.005307091","0.012755116","-0.00676529","","","",""
"11278","","","","","","","-16.278091","50.167576","-31.684368",""
"11280","-0.115473405","3.24157","9.328148","-0.0021113006","0.015950905","-0.00676529","","","",""
"11282","-0.11068726","3.251096","9.3659315","-0.002111301","0.017016167","-0.007830553","","","",""
"11285","-0.11547376","3.2510962","9.36121","-0.0053070923","0.01275511","-0.007830553","","","",""
"11287","-0.11547388","3.2987254","9.328148","-0.003176565","0.013820371","-0.007830553","","","",""
"11288","","","","","","","-16.346191","49.99874","-32.125896",""
"11290","-0.16333759","3.3082514","9.351763","-0.0042418293","0.010624578","-0.008895815","","","",""
"11292","-0.12026059","3.2606218","9.318702","-0.006372357","0.01168984","-0.012091606","","","",""
"11295","-0.12504712","3.246333","9.34704","-0.0053070937","0.005298256","-0.0110263415","","","",""
"11297","-0.13462001","3.260622","9.384824","-0.005307094","0.006363517","-0.012091605","","","",""
"11298","","","","","","","-16.163523","49.432194","-31.966928",""
"11300","-0.14897919","3.3177776","9.337594","-0.0021113039","0.0042329878","-0.0131568685","","","",""
"11302","-0.13462031","3.2796743","9.304532","-0.0031765678","0.0052982494","-0.015287394","","","",""
"11305","-0.08675699","3.284437","9.384824","-0.0031765678","-2.8070644E-5","-0.013156868","","","",""
"11307","-0.153766","3.2749114","9.39427","-0.0031765683","-2.8072973E-5","-0.01635266","","","",""
"11308","","","","","","","-16.065262","49.418655","-31.673342",""
"11310","-0.16812518","3.3082519","9.389547","-0.0021113052","-0.0032238658","-0.019548448","","","",""
"11311","","","","","","","","","",""
"11312","-0.15376636","3.2796743","9.384824","-0.0010460422","-0.0010933412","-0.018483184","","","",""
"11315","-0.1633392","3.222519","9.384824","0.0010844844","-0.0042891344","-0.018483182","","","",""
"11317","-0.15376672","3.2415707","9.3328705","0.003215011","-0.0032238727","-0.018483182","","","",""
"11318","","","","","","","-16.222767","49.06036","-31.474134",""
"11320","-0.13462144","3.2939632","9.323424","0.003215011","-0.0010933481","-0.018483182","","","",""
"11322","-0.20641685","3.2177563","9.403717","1.9219879E-5","-0.0032238774","-0.016352655","","","",""
"11325","-0.17769891","3.1891785","9.417886","0.0021497465","-0.0032238797","-0.014222128","","","",""
"11327","-0.15855367","3.1939414","9.375379","0.002149746","0.0010371719","-0.016352655","","","",""
"11328","","","","","","","-16.333204","49.062115","-31.149282",""
"11330","-0.17291285","3.2368083","9.413161","0.0010844821","-0.0021586204","-0.017417917","","","",""
"11332","-0.21120386","3.2129934","9.422607","0.0021497451","-0.0021586227","-0.01528739","","","",""
"11335","-0.19684498","3.2034676","9.408438","0.008541326","-0.002158625","-0.014222127","","","",""
"11337","-0.23992221","3.2225196","9.398993","0.0064107985","0.0010371631","-0.009961072","","","",""
"11338","","","","","","","-16.30717","49.613373","-31.339518",""
"11340","-0.20641798","3.2225199","9.347039","0.0032150077","0.003167688","-0.008895809","","","",""
"11342","-0.22077715","3.2034678","9.403716","0.005345534","0.0010371584","-0.008895808","","","",""
"11345","-0.23513639","3.2129939","9.384824","0.006410797","-2.8107432E-5","-0.011026335","","","",""
"11347","-0.25428197","3.2225199","9.356485","0.00747606","0.0021024174","-0.008895808","","","",""
"11348","","","","","","","-16.128632","49.78046","-31.22284",""
"11350","-0.20163228","3.189179","9.347039","0.0064107967","-0.002158639","-0.0099610705","","","",""
"11351","","","","","","","","","",""
"11352","-0.21120517","3.193942","9.309255","0.0021497423","-0.0032239049","-0.00676528","","","",""
"11355","-0.25428244","3.203468","9.394269","0.0032150054","-2.811628E-5","-0.007830543","","","",""
"11357","-0.27821434","3.2177572","9.394269","0.003215005","-0.0021586455","-0.00996107","","","",""
"11358","","","","","","","-16.179829","50.15404","-31.390778",""
"11360","-0.23035099","3.1844168","9.347039","0.0032150045","-0.0032239114","-0.004634752","","","",""
"11362","-0.23992388","3.1653647","9.365931","0.0021497405","-0.0032239137","-0.006765279","","","",""
"11365","-0.2590694","3.1701279","9.384824","1.921336E-5","-0.005354443","-0.007830542","","","",""
"11367","-0.23513788","3.1891794","9.389546","0.0010844765","-0.007484973","-0.004634751","","","",""
"11368","","","","","","","-16.504782","50.37702","-32.123592",""
"11370","-0.23992436","3.1748908","9.384824","-0.001046051","-0.007484975","-0.0014389593","","","",""
"11372","-0.23035182","3.184417","9.375378","-0.0010460515","-0.008550241","-0.00463475","","","",""
"11375","-0.2686428","3.1558392","9.375378","-0.007437634","-0.0053544524","-0.006765277","","","",""
"11377","-0.23513854","3.1129727","9.384824","-0.007437634","-0.0053544547","-0.006765276","","","",""
"11378","","","","","","","-16.355324","49.989902","-31.662071",""
"11379","-0.24471135","3.1939428","9.417885","-0.0053071068","-0.0064197206","-0.006765276","","","",""
"11382","-0.25428423","3.1606023","9.403716","-0.0042418437","-0.005354459","-0.004634749","","","",""
"11384","-0.22556631","3.1510763","9.484007","-0.006372371","-0.0042891977","-0.0067652753","","","",""
"11387","-0.19206202","3.1129727","9.479284","-0.0063723717","-0.0042892","-0.004634748","","","",""
"11388","","","","","","","-16.289183","49.419212","-30.869026",""
"11389","-0.23513931","3.1367877","9.469837","-0.0031765813","-0.0042892024","-0.0057000117","","","",""
"11391","","","","","","","","","",""
"11392","-0.23992585","3.112973","9.493453","-0.0031765818","-0.0032239417","-0.007830538","","","",""
"11394","-0.25428507","3.0986843","9.469837","-0.0031765818","-0.0010934166","-0.0067652743","","","",""
"11397","-0.21120813","3.0939214","9.474561","0.0010844718","0.0010371081","-0.0067652734","","","",""
"11398","","","","","","","-16.437553","49.069756","-31.13365",""
"11399","-0.27821714","3.136788","9.5217905","0.0042802617","0.0010371058","-0.00570001","","","",""
"11402","-0.2925763","3.1177359","9.545405","0.0053455248","0.0052981577","-0.00570001","","","",""
"11404","-0.2590721","3.1082103","9.512343","0.009606579","0.006363419","-0.005700009","","","",""
"11407","-0.29736298","3.0748696","9.4887295","0.012802369","0.013820262","-0.0035694817","","","",""
"11408","","","","","","","-16.476576","49.45512","-31.92003",""
"11409","-0.34044033","3.127262","9.512343","0.015998159","0.018081313","-3.7369115E-4","","","",""
"11412","-0.32608145","3.093922","9.446222","0.018128686","0.019146575","-3.736902E-4","","","",""
"11414","-0.31172252","3.0320034","9.4556675","0.023455003","0.0212771","0.0060178908","","","",""
"11417","-0.3404408","3.0081887","9.403715","0.02558553","0.026603416","0.003887364","-15.913843","49.771065","-31.563326",""
"11419","-0.34522727","3.0986848","9.347038","0.027716057","0.023407621","0.011344209","","","",""
"11422","-0.34044117","3.1510773","9.290361","0.031977106","0.02340762","0.013474736","","","",""
"11424","-0.38351846","3.1177366","9.276193","0.030911846","0.026603408","0.016670527","","","",""
"11427","-0.35480046","3.1510775","9.27147","0.028781319","0.025538143","0.020931581","-16.068306","49.41571","-31.51873",""
"11429","-0.34044164","3.1987073","9.205347","0.029846584","0.023407612","0.021996846","","","",""
"11431","","","","","","","","","",""
"11432","-0.36915988","3.1510777","9.191178","0.027716054","0.017016029","0.025192637","","","",""
"11434","-0.35958734","3.208233","9.068379","0.023455","0.017016027","0.027323164","","","",""
"11437","-0.3452284","3.2415738","9.120333","0.019193945","0.014885498","0.027323164","-16.193687","49.61457","-31.818981",""
"11439","-0.3404423","3.2129962","9.110887","0.018128682","0.0052981237","0.029453693","","","",""
"11442","-0.2877926","3.313018","9.068379","0.011737101","0.0031675943","0.030518955","","","",""
"11444","-0.25907472","3.3034925","9.096717","0.0042802547","-0.0010934627","0.02838843","","","",""
"11447","-0.302152","3.3177814","9.106164","-0.0021113267","-0.008550309","0.027323166","-15.913843","49.771065","-31.563326",""
"11449","-0.25428864","3.3415966","9.063657","-0.0063723815","-0.012811366","0.023062112","","","",""
"11452","-0.22078437","3.3415966","9.110887","-0.013829226","-0.018137686","0.02199685","","","",""
"11454","-0.19685283","3.3177817","9.158116","-0.023416597","-0.023464005","0.018801058","","","",""
"11457","-0.17292118","3.3415966","9.191178","-0.02980818","-0.027725063","0.015605268","-16.122545","49.78635","-31.53206",""
"11459","-0.22557119","3.3130186","9.228962","-0.030873442","-0.033051383","0.012409478","","","",""
"11462","-0.18249425","3.2892044","9.30453","-0.03726503","-0.034116644","0.010278951","","","",""
"11464","-0.19685343","3.2463374","9.347038","-0.04365661","-0.03731244","0.0049526338","","","",""
"11467","-0.16334914","3.2939672","9.398992","-0.042591345","-0.038377706","0.0038873714","-16.122545","49.78635","-31.53206",""
"11469","-0.13941762","3.2415748","9.531236","-0.045787137","-0.034116652","0.0017568443","","","",""
"11471","","","","","","","","","",""
"11472","-0.15377685","3.2129972","9.484005","-0.045787137","-0.029855601","-0.0014389453","","","",""
"11474","-0.12027256","3.2225232","9.550128","-0.041526083","-0.023464024","-0.0014389453","","","",""
"11477","-0.1394181","3.1748936","9.611527","-0.04046082","-0.020268235","-3.7368183E-4","-15.522476","49.189236","-31.43562",""
"11479","-0.10591383","3.2034714","9.672927","-0.0351345","-0.013876656","-3.736809E-4","","","",""
"11482","-0.1777092","3.1558418","9.658757","-0.030873446","-0.006419814","0.0017568462","","","",""
"11484","-0.15377769","3.1463163","9.687096","-0.02874292","-0.0042892895","0.0017568462","","","",""
"11486","-0.15856409","3.165368","9.6776495","-0.024481867","-2.8237351E-5","0.0017568471","","","",""
"11487","","","","","","","-15.832483","49.215107","-31.543331",""
"11489","-0.15377799","3.1177382","9.715434","-0.018090285","0.008493869","0.0038873742","","","",""
"11491","-0.120273694","3.0701091","9.691818","-0.012763969","0.010624394","0.0049526375","","","",""
"11494","-0.12506017","3.0653458","9.635142","-0.0063723885","0.01595071","0.008148429","","","",""
"11496","-0.12027405","3.1415532","9.644588","-0.003176598","0.01701597","0.008148429","","","",""
"11497","","","","","","","-16.391573","50.16638","-31.204905",""
"11499","-0.17292398","3.1272645","9.625696","0.0053455094","0.021277022","0.013474748","","","",""
"11501","-0.17292416","3.0939243","9.573743","0.010671828","0.020211756","0.014540011","","","",""
"11504","-0.13941994","3.112976","9.554851","0.013867618","0.024472807","0.017735802","","","",""
"11506","-0.16335176","3.1177387","9.512342","0.015998144","0.024472805","0.021996858","","","",""
"11507","","","","","","","-16.25706","49.97637","-31.36848",""
"11509","-0.177711","3.1510797","9.450944","0.021324461","0.020211749","0.024127385","","","",""
"11511","-0.15856576","3.227287","9.474559","0.024520252","0.01808122","0.02306212","","","",""
"11514","-0.12027512","3.1748946","9.441498","0.030911833","0.015950691","0.024127385","","","",""
"11516","-0.13942072","3.2034724","9.432052","0.033042356","0.010624371","0.026257912","","","",""
"11517","","","","","","","-15.957867","49.413963","-31.843582",""
"11519","-0.1633526","3.2844424","9.413159","0.03730341","0.007428577","0.028388439","","","",""
"11521","-0.16813913","3.2415762","9.380098","0.035172883","0.005298048","0.026257912","","","",""
"11524","-0.17292565","3.27968","9.408436","0.03730341","-2.827181E-5","0.026257912","","","",""
"11526","-0.12506232","3.27968","9.380098","0.0404992","-0.0032240646","0.024127387","","","",""
"11527","","","","","","","-16.333204","49.062115","-31.149282",""
"11529","-0.1059171","3.3034947","9.380098","0.0404992","-0.0064198575","0.020931596","","","",""
"11531","-0.086771876","3.289206","9.3895445","0.0404992","-0.0074851234","0.019866332","","","",""
"11534","-0.12506285","3.2606282","9.332868","0.04156446","-0.009615652","0.018801069","","","",""
"11536","-0.07241315","3.284443","9.262022","0.039433934","-0.011746182","0.014540016","","","",""
"11537","","","","","","","-16.366411","49.24154","-30.84673",""
"11539","-0.09634505","3.2892065","9.309252","0.03623814","-0.009615657","0.012409489","","","",""
"11541","-0.09634523","3.2511027","9.299807","0.03517288","-0.008550396","0.004952645","","","",""
"11544","-0.13463613","3.203473","9.309252","0.031977087","-0.009615662","0.0060179085","","","",""
"11546","-0.12984997","3.2463396","9.247852","0.027716037","-0.0117461905","0.007083172","","","",""
"11547","","","","","","","-15.886724","49.585747","-31.556662",""
"11549","-0.09155935","3.212999","9.295083","0.023454983","-0.009615667","0.008148436","","","",""
"11551","-0.14899573","3.227288","9.262021","0.020259192","-0.0074851415","0.007083173","","","",""
"11554","-0.14420956","3.232051","9.219514","0.018128663","-0.0064198803","0.0060179103","","","",""
"11556","-0.1777141","3.2129996","9.243129","0.010671819","-0.010680936","0.007083174","","","",""
"11557","","","","","","","-16.199776","49.608677","-31.509762",""
"11559","-0.20643239","3.2082365","9.276191","0.007476027","-0.0074851485","0.004952647","","","",""
"11561","-0.21121892","3.184422","9.262021","0.0053455","-0.008550415","0.0060179112","","","",""
"11564","-0.16814187","3.1987107","9.247852","-0.0053071356","-0.0053546256","0.0060179112","","","",""
"11566","-0.16814205","3.151081","9.285637","-0.008502927","-0.009615682","0.0060179112","","","",""
"11567","","","","","","","-16.334291","49.79869","-31.346182",""
"11569","-0.1346378","3.2272885","9.233684","-0.008502927","-0.0074851573","0.008148439","","","",""
"11571","-0.19207416","3.2129998","9.313975","-0.008502927","-0.009615687","0.006017912","","","",""
"11574","-0.17292893","3.198711","9.328144","-0.011698718","-0.010680953","0.0028221228","","","",""
"11576","-0.19207446","3.2511036","9.276191","-0.012763982","-0.012811482","0.0038873863","","","",""
"11577","","","","","","","-15.758299","49.38984","-31.411016",""
"11579","-0.14421117","3.213","9.309252","-0.012763983","-0.016007274","6.9159566E-4","","","",""
"11581","-0.1489977","3.236815","9.280914","-0.011698719","-0.011746223","0.0070831776","","","",""
"11584","-0.15857053","3.222526","9.347036","-0.012763983","-0.01600728","0.0038873872","","","",""
"11586","-0.14421165","3.213","9.384821","-0.012763984","-0.018137809","0.0017568602","","","",""
"11587","","","","","","","-15.678022","49.57046","-31.587927",""
"11588","-0.1825026","3.1939483","9.313975","-0.010633457","-0.019203074","0.0017568611","","","",""
"11591","-0.158571","3.2225263","9.347036","-0.0074376673","-0.01707255","6.915975E-4","","","",""
"11593","-0.17293018","3.241578","9.417882","-0.006372404","-0.018137816","-0.002504193","","","",""
"11596","-0.14899865","3.1939485","9.394266","-0.0053071408","-0.019203082","-0.002504192","","","",""
"11597","","","","","","","-15.931831","49.965225","-32.03382",""
"11598","-0.16335782","3.2130005","9.465113","-0.0021113504","-0.012811502","-0.0067652464","","","",""
"11601","-0.13463995","3.232052","9.450943","-0.002111351","-0.014942032","-0.009961036","","","",""
"11603","-0.16335818","3.1987116","9.413158","-0.0010460878","-0.012811507","-0.009961036","","","",""
"11606","-0.22558084","3.155845","9.408434","0.0021497027","-0.013876773","-0.007830509","","","",""
"11607","","","","","","","-16.399345","49.6328","-31.942327",""
"11608","-0.20643567","3.1701343","9.394265","0.0021497023","-0.011746248","-0.007830508","","","",""
"11611","-0.23036754","3.1844234","9.427327","0.0042802286","-0.013876777","-0.008895772","","","",""
"11613","-0.23036766","3.1510825","9.450942","0.0021497014","-0.009615726","-0.012091562","","","",""
"11616","-0.2255815","3.1177416","9.469834","0.0042802277","-0.009615728","-0.009961034","","","",""
"11617","","","","","","","-16.30717","49.613373","-31.339518",""
"11618","-0.2973769","3.17966","9.469834","0.003214964","-0.005354676","-0.007830507","","","",""
"11621","-0.26865903","3.1463196","9.460388","0.0042802272","-2.8360751E-5","-0.0046347165","","","",""
"11623","-0.23515467","3.1701345","9.47928","0.0053454903","0.0052979547","-0.0035694519","","","",""
"11626","-0.29737738","3.1129792","9.474557","0.007476017","0.005297952","-0.0025041883","","","",""
"11627","","","","","","","-16.072433","50.149345","-31.561022",""
"11628","-0.3117366","3.1082165","9.460388","0.0074760164","0.00849374","-3.736604E-4","","","",""
"11631","-0.3117368","3.1320314","9.43205","0.009606544","0.0074284747","-3.736604E-4","","","",""
"11633","-0.28301886","3.127268","9.469834","0.0074760155","0.008493736","0.0017568667","","","",""
"11636","-0.27344632","3.117742","9.417881","0.0074760155","0.009558997","0.0038873947","","","",""
"11637","","","","","","","-16.081564","50.140507","-31.09719",""
"11638","-0.23036933","3.165372","9.398989","0.005345488","0.013820048","0.007083185","","","",""
"11641","-0.3069511","3.151083","9.37065","0.004280224","0.0116895195","0.008148449","","","",""
"11643","-0.2878058","3.1320317","9.365927","0.005345487","0.008493727","0.007083186","","","",""
"11646","-0.2638743","3.1558459","9.389543","0.010671805","0.009558989","0.012409504","","","",""
"11647","","","","","","","-15.8717785","49.38864","-30.931557",""
"11648","-0.27344716","3.1367946","9.347035","0.007476013","0.0127547765","0.01134424","","","",""
"11651","-0.2925927","3.1748984","9.304527","0.007476013","0.01168951","0.0124095045","","","",""
"11653","-0.2734475","3.189187","9.337589","0.008541277","0.0074284542","0.0124095045","","","",""
"11656","-0.24472952","3.198713","9.304527","0.010671804","0.0074284524","0.011344242","","","",""
"11657","","","","","","","-15.678022","49.57046","-31.587927",""
"11658","-0.2878068","3.2177649","9.252575","0.009606539","0.0010368683","0.010278978","","","",""
"11661","-0.30695242","3.2368171","9.205344","0.0064107478","-2.8397539E-5","0.009213715","","","",""
"11663","-0.28302076","3.2511058","9.295082","0.0064107473","-0.008550508","0.009213716","","","",""
"11666","-0.2638756","3.2606316","9.299806","0.0064107473","-0.0117463","0.0070831887","","","",""
"11667","","","","","","","-15.842701","49.942856","-31.276403",""
"11668","-0.239944","3.232054","9.299806","0.0053454833","-0.012811566","0.008148452","","","",""
"11671","-0.22558512","3.1844249","9.247851","-0.0010460981","-0.019203149","0.01027898","","","",""
"11673","-0.2160126","3.2034764","9.309251","0.0010844285","-0.016007362","0.011344244","","","",""
"11676","-0.24951719","3.1891875","9.313973","0.005345482","-0.019203154","0.006017926","","","",""
"11677","","","","","","","-16.176785","50.156986","-31.54539",""
"11678","-0.2638764","3.2177653","9.266743","-0.0010460995","-0.018137895","0.006017927","","","",""
"11681","-0.26866296","3.2368176","9.271466","-0.0031766265","-0.018137895","0.006017927","","","",""
"11683","-0.22558595","3.2463434","9.356481","-0.006372418","-0.019203162","0.0049526645","","","",""
"11686","-0.23037243","3.2511065","9.365926","-0.008502945","-0.019203164","0.0049526645","","","",""
"11687","","","","","","","-16.24597","50.72473","-32.183823",""
"11688","-0.24473166","3.2177658","9.375373","-0.010633472","-0.018137902","0.0038874012","","","",""
"11691","-0.26866361","3.198714","9.398988","-0.011698736","-0.013876851","0.0028221386","","","",""
"11693","-0.27345008","3.189188","9.41788","-0.00956821","-0.011746326","0.0070831925","","","",""
"11695","-0.2590912","3.2177658","9.384819","-0.008502946","-0.010681065","0.008148456","","","",""
"11697","","","","","","","-15.857645","50.139954","-31.901506",""
"11698","-0.27345043","3.2225292","9.408433","-0.007437684","-0.01174633","0.00601793","","","",""
"11700","-0.2686642","3.2415807","9.361204","-0.011698738","-0.011746332","0.00601793","","","",""
"11703","-0.24473268","3.217766","9.347034","-0.011698738","-0.007485281","0.011344248","","","",""
"11705","-0.23037374","3.170137","9.398988","-0.011698739","-0.002158966","0.009213721","","","",""
"11707","","","","","","","-15.960911","49.411015","-31.688974",""
"11708","-0.23516028","3.1844258","9.3800955","-0.010633476","-0.0053547584","0.0070831943","","","",""
"11710","-0.25430587","3.1891885","9.328142","-0.013829267","-0.0053547607","0.008148459","","","",""
"11711","","","","","","","","","",""
"11713","-0.1968698","3.1891885","9.356481","-0.01809032","0.001036818","0.012409513","","","",""
"11715","-0.17293823","3.1415591","9.365926","-0.01809032","0.0031673429","0.012409513","","","",""
"11717","","","","","","","-16.133358","49.24982","-32.114872",""
"11718","-0.22080186","3.1367962","9.3800955","-0.022351375","0.0031673405","0.015605304","","","",""
"11720","-0.24473375","3.1701374","9.398988","-0.024481904","0.0031673387","0.018801095","","","",""
"11723","-0.22080216","3.155848","9.441495","-0.019155586","0.0052978634","0.019866358","","","",""
"11725","-0.20644334","3.1939518","9.436771","-0.02022085","0.005297861","0.01986636","","","",""
"11727","","","","","","","-16.50065","49.643387","-32.081303",""
"11728","-0.22080252","3.198715","9.4131565","-0.02022085","0.0031673312","0.023062149","","","",""
"11730","-0.2064437","3.189189","9.460387","-0.01702506","0.003167329","0.024127414","","","",""
"11733","-0.18251212","3.2225301","9.427326","-0.015959797","0.005297854","0.025192678","","","",""
"11735","-0.14900783","3.227293","9.488726","-0.01063348","0.004232588","0.024127414","","","",""
"11737","","","","","","","-16.509783","49.63455","-31.617476",""
"11738","-0.16815336","3.2225304","9.4792795","-0.008502953","0.004232586","0.024127414","","","",""
"11740","-0.15379453","3.1796634","9.41788","-0.005307163","0.0042325836","0.01986636","","","",""
"11743","-0.12986289","3.1891894","9.408433","-0.0010461092","0.0063631083","0.01986636","","","",""
"11745","-0.12986307","3.2130044","9.535954","0.0032149444","0.01062416","0.018801099","","","",""
"11747","","","","","","","-16.15271","49.968727","-31.384113",""
"11748","-0.1442223","3.2558708","9.517062","0.0053454707","0.013819949","0.017735835","","","",""
"11750","-0.18251319","3.2987373","9.49817","0.0053454703","0.023407318","0.012409518","","","",""
